"rt","response","trial_type","trial_index","time_elapsed","internal_node_id","subject_ID","stimulus","phase","set_duration","target_interval","reproduced_interval","reproduction_error"
"1135","{""subject_id"":""adi""}","survey-text","0","1137","0.0-0.0","","","","","","",""
"938"," ","html-keyboard-response","1","2077","0.0-1.0","","
      <p>Ready-Set-Go Task:</p>
      <ul style=""text-align:left; max-width:600px; margin:auto;"">
        <li>First, a <strong>red circle (""Ready"")</strong> appears</li>
        <li>Then, after a delay, an <strong>orange circle (""Set"")</strong> appears</li>
        <li>After ""Set"" disappears, screen goes blank</li>
        <li>You must <strong>press SPACE</strong> when you think the same delay has passed</li>
        <li>After you press, a green circle will appear</li>
        <li>Then you'll see how close your timing was (only for the first 5 trials).</li>
      </ul>
      <p>Press any key to begin.</p>
    ","","","","",""
"null","null","html-keyboard-response","2","2580","0.0-2.0","","<div class=""circle ready""></div>","ready","","","",""
"null","null","html-keyboard-response","3","2882","0.0-3.0","","","isi","","","",""
"null","null","html-keyboard-response","4","3384","0.0-4.0","","<div class=""circle set""></div>","set","500","","",""
"265"," ","html-keyboard-response","5","3650","0.0-5.0","","","go","","300","265","-35"
"null","null","html-keyboard-response","6","4152","0.0-6.0","","<div class=""circle""></div>","feedback_circle","","","",""
"null","null","html-keyboard-response","7","4655","0.0-7.0","","<div class=""circle""></div>","feedback_circle","","","",""
"1407"," ","html-keyboard-response","8","6064","0.0-8.0","","
      <p><strong>Interval you saw:</strong> 300 ms</p>
      <p><strong>Interval you reported:</strong> 265 ms</p>
      <p><strong>Error:</strong> -35 ms</p>
      <p>Press any key to continue.</p>
    ","feedback_text","","","",""
"null","null","html-keyboard-response","9","7067","0.0-9.0","","<p style=""font-size: 48px;"">+</p>","iti","","","",""
"null","null","html-keyboard-response","10","7569","0.0-10.0","","<div class=""circle ready""></div>","ready","","","",""
"null","null","html-keyboard-response","11","8372","0.0-11.0","","","isi","","","",""
"null","null","html-keyboard-response","12","8874","0.0-12.0","","<div class=""circle set""></div>","set","500","","",""
"866"," ","html-keyboard-response","13","9741","0.0-13.0","","","go","","800","866","66"
"null","null","html-keyboard-response","14","10242","0.0-14.0","","<div class=""circle""></div>","feedback_circle","","","",""
"null","null","html-keyboard-response","15","10745","0.0-15.0","","<div class=""circle""></div>","feedback_circle","","","",""
"1615"," ","html-keyboard-response","16","12361","0.0-16.0","","
      <p><strong>Interval you saw:</strong> 800 ms</p>
      <p><strong>Interval you reported:</strong> 866 ms</p>
      <p><strong>Error:</strong> +66 ms</p>
      <p>Press any key to continue.</p>
    ","feedback_text","","","",""
"null","null","html-keyboard-response","17","13364","0.0-17.0","","<p style=""font-size: 48px;"">+</p>","iti","","","",""
"null","null","html-keyboard-response","18","13866","0.0-18.0","","<div class=""circle ready""></div>","ready","","","",""
"null","null","html-keyboard-response","19","14769","0.0-19.0","","","isi","","","",""
"null","null","html-keyboard-response","20","15271","0.0-20.0","","<div class=""circle set""></div>","set","500","","",""
"817"," ","html-keyboard-response","21","16090","0.0-21.0","","","go","","900","817","-83"
"null","null","html-keyboard-response","22","16591","0.0-22.0","","<div class=""circle""></div>","feedback_circle","","","",""
"null","null","html-keyboard-response","23","17094","0.0-23.0","","<div class=""circle""></div>","feedback_circle","","","",""
"1162"," ","html-keyboard-response","24","18257","0.0-24.0","","
      <p><strong>Interval you saw:</strong> 900 ms</p>
      <p><strong>Interval you reported:</strong> 817 ms</p>
      <p><strong>Error:</strong> -83 ms</p>
      <p>Press any key to continue.</p>
    ","feedback_text","","","",""
"null","null","html-keyboard-response","25","19259","0.0-25.0","","<p style=""font-size: 48px;"">+</p>","iti","","","",""
"null","null","html-keyboard-response","26","19762","0.0-26.0","","<div class=""circle ready""></div>","ready","","","",""
"null","null","html-keyboard-response","27","20064","0.0-27.0","","","isi","","","",""
"null","null","html-keyboard-response","28","20567","0.0-28.0","","<div class=""circle set""></div>","set","500","","",""
"346"," ","html-keyboard-response","29","20914","0.0-29.0","","","go","","300","346","46"
"null","null","html-keyboard-response","30","21415","0.0-30.0","","<div class=""circle""></div>","feedback_circle","","","",""
"null","null","html-keyboard-response","31","21917","0.0-31.0","","<div class=""circle""></div>","feedback_circle","","","",""
"1123"," ","html-keyboard-response","32","23042","0.0-32.0","","
      <p><strong>Interval you saw:</strong> 300 ms</p>
      <p><strong>Interval you reported:</strong> 346 ms</p>
      <p><strong>Error:</strong> +46 ms</p>
      <p>Press any key to continue.</p>
    ","feedback_text","","","",""
"null","null","html-keyboard-response","33","24044","0.0-33.0","","<p style=""font-size: 48px;"">+</p>","iti","","","",""
"null","null","html-keyboard-response","34","24548","0.0-34.0","","<div class=""circle ready""></div>","ready","","","",""
"null","null","html-keyboard-response","35","24750","0.0-35.0","","","isi","","","",""
"null","null","html-keyboard-response","36","25253","0.0-36.0","","<div class=""circle set""></div>","set","500","","",""
"244"," ","html-keyboard-response","37","25497","0.0-37.0","","","go","","200","244","44"
"null","null","html-keyboard-response","38","25999","0.0-38.0","","<div class=""circle""></div>","feedback_circle","","","",""
"null","null","html-keyboard-response","39","26502","0.0-39.0","","<div class=""circle""></div>","feedback_circle","","","",""
"1008"," ","html-keyboard-response","40","27511","0.0-40.0","","
      <p><strong>Interval you saw:</strong> 200 ms</p>
      <p><strong>Interval you reported:</strong> 244 ms</p>
      <p><strong>Error:</strong> +44 ms</p>
      <p>Press any key to continue.</p>
    ","feedback_text","","","",""
"null","null","html-keyboard-response","41","28514","0.0-41.0","","<p style=""font-size: 48px;"">+</p>","iti","","","",""
"null","null","html-keyboard-response","42","29017","0.0-42.0","","<div class=""circle ready""></div>","ready","","","",""
"null","null","html-keyboard-response","43","29720","0.0-43.0","","","isi","","","",""
"null","null","html-keyboard-response","44","30222","0.0-44.0","","<div class=""circle set""></div>","set","500","","",""
"672"," ","html-keyboard-response","45","30895","0.0-45.0","","","go","","700","672","-28"
"null","null","html-keyboard-response","46","31397","0.0-46.0","","<div class=""circle""></div>","feedback_circle","","","",""
"null","null","html-keyboard-response","47","32400","0.0-47.0","","<div style=""font-size: 48px;"">+</div>
            <p style=""font-size: 16px; text-align: center;"">Trial 7 of 300</p>","iti","","","",""
"null","null","html-keyboard-response","48","32903","0.0-48.0","","<div class=""circle ready""></div>","ready","","","",""
"null","null","html-keyboard-response","49","33306","0.0-49.0","","","isi","","","",""
"null","null","html-keyboard-response","50","33808","0.0-50.0","","<div class=""circle set""></div>","set","500","","",""
"322"," ","html-keyboard-response","51","34131","0.0-51.0","","","go","","400","322","-78"
"null","null","html-keyboard-response","52","34633","0.0-52.0","","<div class=""circle""></div>","feedback_circle","","","",""
"null","null","html-keyboard-response","53","35635","0.0-53.0","","<div style=""font-size: 48px;"">+</div>
            <p style=""font-size: 16px; text-align: center;"">Trial 8 of 300</p>","iti","","","",""
"null","null","html-keyboard-response","54","36138","0.0-54.0","","<div class=""circle ready""></div>","ready","","","",""
"null","null","html-keyboard-response","55","36640","0.0-55.0","","","isi","","","",""
"null","null","html-keyboard-response","56","37143","0.0-56.0","","<div class=""circle set""></div>","set","500","","",""
"504"," ","html-keyboard-response","57","37648","0.0-57.0","","","go","","500","504","4"
"null","null","html-keyboard-response","58","38149","0.0-58.0","","<div class=""circle""></div>","feedback_circle","","","",""
"null","null","html-keyboard-response","59","39152","0.0-59.0","","<div style=""font-size: 48px;"">+</div>
            <p style=""font-size: 16px; text-align: center;"">Trial 9 of 300</p>","iti","","","",""
"null","null","html-keyboard-response","60","39655","0.0-60.0","","<div class=""circle ready""></div>","ready","","","",""
"null","null","html-keyboard-response","61","40157","0.0-61.0","","","isi","","","",""
"null","null","html-keyboard-response","62","40660","0.0-62.0","","<div class=""circle set""></div>","set","500","","",""
"516"," ","html-keyboard-response","63","41177","0.0-63.0","","","go","","500","516","16"
"null","null","html-keyboard-response","64","41678","0.0-64.0","","<div class=""circle""></div>","feedback_circle","","","",""
"null","null","html-keyboard-response","65","42680","0.0-65.0","","<div style=""font-size: 48px;"">+</div>
            <p style=""font-size: 16px; text-align: center;"">Trial 10 of 300</p>","iti","","","",""
"null","null","html-keyboard-response","66","43183","0.0-66.0","","<div class=""circle ready""></div>","ready","","","",""
"null","null","html-keyboard-response","67","43685","0.0-67.0","","","isi","","","",""
"null","null","html-keyboard-response","68","44188","0.0-68.0","","<div class=""circle set""></div>","set","500","","",""
"457"," ","html-keyboard-response","69","44645","0.0-69.0","","","go","","500","457","-43"
"null","null","html-keyboard-response","70","45146","0.0-70.0","","<div class=""circle""></div>","feedback_circle","","","",""
"null","null","html-keyboard-response","71","46149","0.0-71.0","","<div style=""font-size: 48px;"">+</div>
            <p style=""font-size: 16px; text-align: center;"">Trial 11 of 300</p>","iti","","","",""
"null","null","html-keyboard-response","72","46651","0.0-72.0","","<div class=""circle ready""></div>","ready","","","",""
"null","null","html-keyboard-response","73","47053","0.0-73.0","","","isi","","","",""
"null","null","html-keyboard-response","74","47556","0.0-74.0","","<div class=""circle set""></div>","set","500","","",""
"405"," ","html-keyboard-response","75","47961","0.0-75.0","","","go","","400","405","5"
"null","null","html-keyboard-response","76","48462","0.0-76.0","","<div class=""circle""></div>","feedback_circle","","","",""
"null","null","html-keyboard-response","77","49465","0.0-77.0","","<div style=""font-size: 48px;"">+</div>
            <p style=""font-size: 16px; text-align: center;"">Trial 12 of 300</p>","iti","","","",""
"null","null","html-keyboard-response","78","49968","0.0-78.0","","<div class=""circle ready""></div>","ready","","","",""
"null","null","html-keyboard-response","79","50470","0.0-79.0","","","isi","","","",""
"null","null","html-keyboard-response","80","50973","0.0-80.0","","<div class=""circle set""></div>","set","500","","",""
"405"," ","html-keyboard-response","81","51379","0.0-81.0","","","go","","500","405","-95"
"null","null","html-keyboard-response","82","51880","0.0-82.0","","<div class=""circle""></div>","feedback_circle","","","",""
"null","null","html-keyboard-response","83","52883","0.0-83.0","","<div style=""font-size: 48px;"">+</div>
            <p style=""font-size: 16px; text-align: center;"">Trial 13 of 300</p>","iti","","","",""
"null","null","html-keyboard-response","84","53386","0.0-84.0","","<div class=""circle ready""></div>","ready","","","",""
"null","null","html-keyboard-response","85","54289","0.0-85.0","","","isi","","","",""
"null","null","html-keyboard-response","86","54791","0.0-86.0","","<div class=""circle set""></div>","set","500","","",""
"628"," ","html-keyboard-response","87","55419","0.0-87.0","","","go","","900","628","-272"
"null","null","html-keyboard-response","88","55921","0.0-88.0","","<div class=""circle""></div>","feedback_circle","","","",""
"null","null","html-keyboard-response","89","56923","0.0-89.0","","<div style=""font-size: 48px;"">+</div>
            <p style=""font-size: 16px; text-align: center;"">Trial 14 of 300</p>","iti","","","",""
"null","null","html-keyboard-response","90","57426","0.0-90.0","","<div class=""circle ready""></div>","ready","","","",""
"null","null","html-keyboard-response","91","58229","0.0-91.0","","","isi","","","",""
"null","null","html-keyboard-response","92","58731","0.0-92.0","","<div class=""circle set""></div>","set","500","","",""
"634"," ","html-keyboard-response","93","59366","0.0-93.0","","","go","","800","634","-166"
"null","null","html-keyboard-response","94","59867","0.0-94.0","","<div class=""circle""></div>","feedback_circle","","","",""
"null","null","html-keyboard-response","95","60870","0.0-95.0","","<div style=""font-size: 48px;"">+</div>
            <p style=""font-size: 16px; text-align: center;"">Trial 15 of 300</p>","iti","","","",""
"null","null","html-keyboard-response","96","61372","0.0-96.0","","<div class=""circle ready""></div>","ready","","","",""
"null","null","html-keyboard-response","97","62275","0.0-97.0","","","isi","","","",""
"null","null","html-keyboard-response","98","62777","0.0-98.0","","<div class=""circle set""></div>","set","500","","",""
"649"," ","html-keyboard-response","99","63426","0.0-99.0","","","go","","900","649","-251"
"null","null","html-keyboard-response","100","63928","0.0-100.0","","<div class=""circle""></div>","feedback_circle","","","",""
"null","null","html-keyboard-response","101","64931","0.0-101.0","","<div style=""font-size: 48px;"">+</div>
            <p style=""font-size: 16px; text-align: center;"">Trial 16 of 300</p>","iti","","","",""
"null","null","html-keyboard-response","102","65434","0.0-102.0","","<div class=""circle ready""></div>","ready","","","",""
"null","null","html-keyboard-response","103","66336","0.0-103.0","","","isi","","","",""
"null","null","html-keyboard-response","104","66838","0.0-104.0","","<div class=""circle set""></div>","set","500","","",""
"615"," ","html-keyboard-response","105","67454","0.0-105.0","","","go","","900","615","-285"
"null","null","html-keyboard-response","106","67955","0.0-106.0","","<div class=""circle""></div>","feedback_circle","","","",""
"null","null","html-keyboard-response","107","68958","0.0-107.0","","<div style=""font-size: 48px;"">+</div>
            <p style=""font-size: 16px; text-align: center;"">Trial 17 of 300</p>","iti","","","",""
"null","null","html-keyboard-response","108","69459","0.0-108.0","","<div class=""circle ready""></div>","ready","","","",""
"null","null","html-keyboard-response","109","69862","0.0-109.0","","","isi","","","",""
"null","null","html-keyboard-response","110","70364","0.0-110.0","","<div class=""circle set""></div>","set","500","","",""
"455"," ","html-keyboard-response","111","70820","0.0-111.0","","","go","","400","455","55"
"null","null","html-keyboard-response","112","71321","0.0-112.0","","<div class=""circle""></div>","feedback_circle","","","",""
"null","null","html-keyboard-response","113","72324","0.0-113.0","","<div style=""font-size: 48px;"">+</div>
            <p style=""font-size: 16px; text-align: center;"">Trial 18 of 300</p>","iti","","","",""
"null","null","html-keyboard-response","114","72827","0.0-114.0","","<div class=""circle ready""></div>","ready","","","",""
"null","null","html-keyboard-response","115","73429","0.0-115.0","","","isi","","","",""
"null","null","html-keyboard-response","116","73932","0.0-116.0","","<div class=""circle set""></div>","set","500","","",""
"501"," ","html-keyboard-response","117","74434","0.0-117.0","","","go","","600","501","-99"
"null","null","html-keyboard-response","118","74935","0.0-118.0","","<div class=""circle""></div>","feedback_circle","","","",""
"null","null","html-keyboard-response","119","75938","0.0-119.0","","<div style=""font-size: 48px;"">+</div>
            <p style=""font-size: 16px; text-align: center;"">Trial 19 of 300</p>","iti","","","",""
"null","null","html-keyboard-response","120","76440","0.0-120.0","","<div class=""circle ready""></div>","ready","","","",""
"null","null","html-keyboard-response","121","77243","0.0-121.0","","","isi","","","",""
"null","null","html-keyboard-response","122","77746","0.0-122.0","","<div class=""circle set""></div>","set","500","","",""
"683"," ","html-keyboard-response","123","78429","0.0-123.0","","","go","","800","683","-117"
"null","null","html-keyboard-response","124","78930","0.0-124.0","","<div class=""circle""></div>","feedback_circle","","","",""
"null","null","html-keyboard-response","125","79933","0.0-125.0","","<div style=""font-size: 48px;"">+</div>
            <p style=""font-size: 16px; text-align: center;"">Trial 20 of 300</p>","iti","","","",""
"null","null","html-keyboard-response","126","80435","0.0-126.0","","<div class=""circle ready""></div>","ready","","","",""
"null","null","html-keyboard-response","127","80736","0.0-127.0","","","isi","","","",""
"null","null","html-keyboard-response","128","81238","0.0-128.0","","<div class=""circle set""></div>","set","500","","",""
"293"," ","html-keyboard-response","129","81532","0.0-129.0","","","go","","300","293","-7"
"null","null","html-keyboard-response","130","82034","0.0-130.0","","<div class=""circle""></div>","feedback_circle","","","",""
"null","null","html-keyboard-response","131","83036","0.0-131.0","","<div style=""font-size: 48px;"">+</div>
            <p style=""font-size: 16px; text-align: center;"">Trial 21 of 300</p>","iti","","","",""
"null","null","html-keyboard-response","132","83539","0.0-132.0","","<div class=""circle ready""></div>","ready","","","",""
"null","null","html-keyboard-response","133","84141","0.0-133.0","","","isi","","","",""
"null","null","html-keyboard-response","134","84643","0.0-134.0","","<div class=""circle set""></div>","set","500","","",""
"539"," ","html-keyboard-response","135","85184","0.0-135.0","","","go","","600","539","-61"
"null","null","html-keyboard-response","136","85685","0.0-136.0","","<div class=""circle""></div>","feedback_circle","","","",""
"null","null","html-keyboard-response","137","86688","0.0-137.0","","<div style=""font-size: 48px;"">+</div>
            <p style=""font-size: 16px; text-align: center;"">Trial 22 of 300</p>","iti","","","",""
"null","null","html-keyboard-response","138","87190","0.0-138.0","","<div class=""circle ready""></div>","ready","","","",""
"null","null","html-keyboard-response","139","87993","0.0-139.0","","","isi","","","",""
"null","null","html-keyboard-response","140","88495","0.0-140.0","","<div class=""circle set""></div>","set","500","","",""
"743"," ","html-keyboard-response","141","89239","0.0-141.0","","","go","","800","743","-57"
"null","null","html-keyboard-response","142","89740","0.0-142.0","","<div class=""circle""></div>","feedback_circle","","","",""
"null","null","html-keyboard-response","143","90742","0.0-143.0","","<div style=""font-size: 48px;"">+</div>
            <p style=""font-size: 16px; text-align: center;"">Trial 23 of 300</p>","iti","","","",""
"null","null","html-keyboard-response","144","91244","0.0-144.0","","<div class=""circle ready""></div>","ready","","","",""
"null","null","html-keyboard-response","145","91847","0.0-145.0","","","isi","","","",""
"null","null","html-keyboard-response","146","92350","0.0-146.0","","<div class=""circle set""></div>","set","500","","",""
"647"," ","html-keyboard-response","147","92997","0.0-147.0","","","go","","600","647","47"
"null","null","html-keyboard-response","148","93498","0.0-148.0","","<div class=""circle""></div>","feedback_circle","","","",""
"null","null","html-keyboard-response","149","94500","0.0-149.0","","<div style=""font-size: 48px;"">+</div>
            <p style=""font-size: 16px; text-align: center;"">Trial 24 of 300</p>","iti","","","",""
"null","null","html-keyboard-response","150","95003","0.0-150.0","","<div class=""circle ready""></div>","ready","","","",""
"null","null","html-keyboard-response","151","95205","0.0-151.0","","","isi","","","",""
"null","null","html-keyboard-response","152","95708","0.0-152.0","","<div class=""circle set""></div>","set","500","","",""
"78"," ","html-keyboard-response","153","95786","0.0-153.0","","","go","","200","78","-122"
"null","null","html-keyboard-response","154","96287","0.0-154.0","","<div class=""circle""></div>","feedback_circle","","","",""
"null","null","html-keyboard-response","155","97290","0.0-155.0","","<div style=""font-size: 48px;"">+</div>
            <p style=""font-size: 16px; text-align: center;"">Trial 25 of 300</p>","iti","","","",""
"null","null","html-keyboard-response","156","97791","0.0-156.0","","<div class=""circle ready""></div>","ready","","","",""
"null","null","html-keyboard-response","157","98494","0.0-157.0","","","isi","","","",""
"null","null","html-keyboard-response","158","98996","0.0-158.0","","<div class=""circle set""></div>","set","500","","",""
"778"," ","html-keyboard-response","159","99774","0.0-159.0","","","go","","700","778","78"
"null","null","html-keyboard-response","160","100276","0.0-160.0","","<div class=""circle""></div>","feedback_circle","","","",""
"null","null","html-keyboard-response","161","101279","0.0-161.0","","<div style=""font-size: 48px;"">+</div>
            <p style=""font-size: 16px; text-align: center;"">Trial 26 of 300</p>","iti","","","",""
"null","null","html-keyboard-response","162","101780","0.0-162.0","","<div class=""circle ready""></div>","ready","","","",""
"null","null","html-keyboard-response","163","102182","0.0-163.0","","","isi","","","",""
"null","null","html-keyboard-response","164","102685","0.0-164.0","","<div class=""circle set""></div>","set","500","","",""
"362"," ","html-keyboard-response","165","103047","0.0-165.0","","","go","","400","362","-38"
"null","null","html-keyboard-response","166","103548","0.0-166.0","","<div class=""circle""></div>","feedback_circle","","","",""
"null","null","html-keyboard-response","167","104551","0.0-167.0","","<div style=""font-size: 48px;"">+</div>
            <p style=""font-size: 16px; text-align: center;"">Trial 27 of 300</p>","iti","","","",""
"null","null","html-keyboard-response","168","105053","0.0-168.0","","<div class=""circle ready""></div>","ready","","","",""
"null","null","html-keyboard-response","169","105755","0.0-169.0","","","isi","","","",""
"null","null","html-keyboard-response","170","106258","0.0-170.0","","<div class=""circle set""></div>","set","500","","",""
"659"," ","html-keyboard-response","171","106917","0.0-171.0","","","go","","700","659","-41"
"null","null","html-keyboard-response","172","107418","0.0-172.0","","<div class=""circle""></div>","feedback_circle","","","",""
"null","null","html-keyboard-response","173","108421","0.0-173.0","","<div style=""font-size: 48px;"">+</div>
            <p style=""font-size: 16px; text-align: center;"">Trial 28 of 300</p>","iti","","","",""
"null","null","html-keyboard-response","174","108922","0.0-174.0","","<div class=""circle ready""></div>","ready","","","",""
"null","null","html-keyboard-response","175","109724","0.0-175.0","","","isi","","","",""
"null","null","html-keyboard-response","176","110227","0.0-176.0","","<div class=""circle set""></div>","set","500","","",""
"757"," ","html-keyboard-response","177","110985","0.0-177.0","","","go","","800","757","-43"
"null","null","html-keyboard-response","178","111486","0.0-178.0","","<div class=""circle""></div>","feedback_circle","","","",""
"null","null","html-keyboard-response","179","112489","0.0-179.0","","<div style=""font-size: 48px;"">+</div>
            <p style=""font-size: 16px; text-align: center;"">Trial 29 of 300</p>","iti","","","",""
"null","null","html-keyboard-response","180","112991","0.0-180.0","","<div class=""circle ready""></div>","ready","","","",""
"null","null","html-keyboard-response","181","113693","0.0-181.0","","","isi","","","",""
"null","null","html-keyboard-response","182","114196","0.0-182.0","","<div class=""circle set""></div>","set","500","","",""
"770"," ","html-keyboard-response","183","114967","0.0-183.0","","","go","","700","770","70"
"null","null","html-keyboard-response","184","115468","0.0-184.0","","<div class=""circle""></div>","feedback_circle","","","",""
"null","null","html-keyboard-response","185","116471","0.0-185.0","","<div style=""font-size: 48px;"">+</div>
            <p style=""font-size: 16px; text-align: center;"">Trial 30 of 300</p>","iti","","","",""
"null","null","html-keyboard-response","186","116974","0.0-186.0","","<div class=""circle ready""></div>","ready","","","",""
"null","null","html-keyboard-response","187","117176","0.0-187.0","","","isi","","","",""
"null","null","html-keyboard-response","188","117679","0.0-188.0","","<div class=""circle set""></div>","set","500","","",""
"96"," ","html-keyboard-response","189","117776","0.0-189.0","","","go","","200","96","-104"
"null","null","html-keyboard-response","190","118277","0.0-190.0","","<div class=""circle""></div>","feedback_circle","","","",""
"null","null","html-keyboard-response","191","119280","0.0-191.0","","<div style=""font-size: 48px;"">+</div>
            <p style=""font-size: 16px; text-align: center;"">Trial 31 of 300</p>","iti","","","",""
"null","null","html-keyboard-response","192","119782","0.0-192.0","","<div class=""circle ready""></div>","ready","","","",""
"null","null","html-keyboard-response","193","120284","0.0-193.0","","","isi","","","",""
"null","null","html-keyboard-response","194","120786","0.0-194.0","","<div class=""circle set""></div>","set","500","","",""
"453"," ","html-keyboard-response","195","121240","0.0-195.0","","","go","","500","453","-47"
"null","null","html-keyboard-response","196","121741","0.0-196.0","","<div class=""circle""></div>","feedback_circle","","","",""
"null","null","html-keyboard-response","197","122744","0.0-197.0","","<div style=""font-size: 48px;"">+</div>
            <p style=""font-size: 16px; text-align: center;"">Trial 32 of 300</p>","iti","","","",""
"null","null","html-keyboard-response","198","123246","0.0-198.0","","<div class=""circle ready""></div>","ready","","","",""
"null","null","html-keyboard-response","199","123949","0.0-199.0","","","isi","","","",""
"null","null","html-keyboard-response","200","124452","0.0-200.0","","<div class=""circle set""></div>","set","500","","",""
"708"," ","html-keyboard-response","201","125161","0.0-201.0","","","go","","700","708","8"
"null","null","html-keyboard-response","202","125663","0.0-202.0","","<div class=""circle""></div>","feedback_circle","","","",""
"null","null","html-keyboard-response","203","126665","0.0-203.0","","<div style=""font-size: 48px;"">+</div>
            <p style=""font-size: 16px; text-align: center;"">Trial 33 of 300</p>","iti","","","",""
"null","null","html-keyboard-response","204","127167","0.0-204.0","","<div class=""circle ready""></div>","ready","","","",""
"null","null","html-keyboard-response","205","127570","0.0-205.0","","","isi","","","",""
"null","null","html-keyboard-response","206","128072","0.0-206.0","","<div class=""circle set""></div>","set","500","","",""
"474"," ","html-keyboard-response","207","128547","0.0-207.0","","","go","","400","474","74"
"null","null","html-keyboard-response","208","129048","0.0-208.0","","<div class=""circle""></div>","feedback_circle","","","",""
"null","null","html-keyboard-response","209","130051","0.0-209.0","","<div style=""font-size: 48px;"">+</div>
            <p style=""font-size: 16px; text-align: center;"">Trial 34 of 300</p>","iti","","","",""
"null","null","html-keyboard-response","210","130553","0.0-210.0","","<div class=""circle ready""></div>","ready","","","",""
"null","null","html-keyboard-response","211","130856","0.0-211.0","","","isi","","","",""
"null","null","html-keyboard-response","212","131358","0.0-212.0","","<div class=""circle set""></div>","set","500","","",""
"252"," ","html-keyboard-response","213","131611","0.0-213.0","","","go","","300","252","-48"
"null","null","html-keyboard-response","214","132112","0.0-214.0","","<div class=""circle""></div>","feedback_circle","","","",""
"null","null","html-keyboard-response","215","133114","0.0-215.0","","<div style=""font-size: 48px;"">+</div>
            <p style=""font-size: 16px; text-align: center;"">Trial 35 of 300</p>","iti","","","",""
"null","null","html-keyboard-response","216","133617","0.0-216.0","","<div class=""circle ready""></div>","ready","","","",""
"null","null","html-keyboard-response","217","133919","0.0-217.0","","","isi","","","",""
"null","null","html-keyboard-response","218","134422","0.0-218.0","","<div class=""circle set""></div>","set","500","","",""
"346"," ","html-keyboard-response","219","134768","0.0-219.0","","","go","","300","346","46"
"null","null","html-keyboard-response","220","135269","0.0-220.0","","<div class=""circle""></div>","feedback_circle","","","",""
"null","null","html-keyboard-response","221","136272","0.0-221.0","","<div style=""font-size: 48px;"">+</div>
            <p style=""font-size: 16px; text-align: center;"">Trial 36 of 300</p>","iti","","","",""
"null","null","html-keyboard-response","222","136775","0.0-222.0","","<div class=""circle ready""></div>","ready","","","",""
"null","null","html-keyboard-response","223","137377","0.0-223.0","","","isi","","","",""
"null","null","html-keyboard-response","224","137879","0.0-224.0","","<div class=""circle set""></div>","set","500","","",""
"628"," ","html-keyboard-response","225","138508","0.0-225.0","","","go","","600","628","28"
"null","null","html-keyboard-response","226","139009","0.0-226.0","","<div class=""circle""></div>","feedback_circle","","","",""
"null","null","html-keyboard-response","227","140011","0.0-227.0","","<div style=""font-size: 48px;"">+</div>
            <p style=""font-size: 16px; text-align: center;"">Trial 37 of 300</p>","iti","","","",""
"null","null","html-keyboard-response","228","140513","0.0-228.0","","<div class=""circle ready""></div>","ready","","","",""
"null","null","html-keyboard-response","229","140716","0.0-229.0","","","isi","","","",""
"null","null","html-keyboard-response","230","141218","0.0-230.0","","<div class=""circle set""></div>","set","500","","",""
"138"," ","html-keyboard-response","231","141357","0.0-231.0","","","go","","200","138","-62"
"null","null","html-keyboard-response","232","141858","0.0-232.0","","<div class=""circle""></div>","feedback_circle","","","",""
"null","null","html-keyboard-response","233","142861","0.0-233.0","","<div style=""font-size: 48px;"">+</div>
            <p style=""font-size: 16px; text-align: center;"">Trial 38 of 300</p>","iti","","","",""
"null","null","html-keyboard-response","234","143363","0.0-234.0","","<div class=""circle ready""></div>","ready","","","",""
"null","null","html-keyboard-response","235","144165","0.0-235.0","","","isi","","","",""
"null","null","html-keyboard-response","236","144668","0.0-236.0","","<div class=""circle set""></div>","set","500","","",""
"629"," ","html-keyboard-response","237","145297","0.0-237.0","","","go","","800","629","-171"
"null","null","html-keyboard-response","238","145799","0.0-238.0","","<div class=""circle""></div>","feedback_circle","","","",""
"null","null","html-keyboard-response","239","146801","0.0-239.0","","<div style=""font-size: 48px;"">+</div>
            <p style=""font-size: 16px; text-align: center;"">Trial 39 of 300</p>","iti","","","",""
"null","null","html-keyboard-response","240","147302","0.0-240.0","","<div class=""circle ready""></div>","ready","","","",""
"null","null","html-keyboard-response","241","148205","0.0-241.0","","","isi","","","",""
"null","null","html-keyboard-response","242","148708","0.0-242.0","","<div class=""circle set""></div>","set","500","","",""
"898"," ","html-keyboard-response","243","149606","0.0-243.0","","","go","","900","898","-2"
"null","null","html-keyboard-response","244","150108","0.0-244.0","","<div class=""circle""></div>","feedback_circle","","","",""
"null","null","html-keyboard-response","245","151111","0.0-245.0","","<div style=""font-size: 48px;"">+</div>
            <p style=""font-size: 16px; text-align: center;"">Trial 40 of 300</p>","iti","","","",""
"null","null","html-keyboard-response","246","151612","0.0-246.0","","<div class=""circle ready""></div>","ready","","","",""
"null","null","html-keyboard-response","247","152415","0.0-247.0","","","isi","","","",""
"null","null","html-keyboard-response","248","152918","0.0-248.0","","<div class=""circle set""></div>","set","500","","",""
"789"," ","html-keyboard-response","249","153708","0.0-249.0","","","go","","800","789","-11"
"null","null","html-keyboard-response","250","154209","0.0-250.0","","<div class=""circle""></div>","feedback_circle","","","",""
"null","null","html-keyboard-response","251","155213","0.0-251.0","","<div style=""font-size: 48px;"">+</div>
            <p style=""font-size: 16px; text-align: center;"">Trial 41 of 300</p>","iti","","","",""
"null","null","html-keyboard-response","252","155714","0.0-252.0","","<div class=""circle ready""></div>","ready","","","",""
"null","null","html-keyboard-response","253","156216","0.0-253.0","","","isi","","","",""
"null","null","html-keyboard-response","254","156718","0.0-254.0","","<div class=""circle set""></div>","set","500","","",""
"527"," ","html-keyboard-response","255","157246","0.0-255.0","","","go","","500","527","27"
"null","null","html-keyboard-response","256","157747","0.0-256.0","","<div class=""circle""></div>","feedback_circle","","","",""
"null","null","html-keyboard-response","257","158750","0.0-257.0","","<div style=""font-size: 48px;"">+</div>
            <p style=""font-size: 16px; text-align: center;"">Trial 42 of 300</p>","iti","","","",""
"null","null","html-keyboard-response","258","159253","0.0-258.0","","<div class=""circle ready""></div>","ready","","","",""
"null","null","html-keyboard-response","259","159756","0.0-259.0","","","isi","","","",""
"null","null","html-keyboard-response","260","160258","0.0-260.0","","<div class=""circle set""></div>","set","500","","",""
"498"," ","html-keyboard-response","261","160757","0.0-261.0","","","go","","500","498","-2"
"null","null","html-keyboard-response","262","161258","0.0-262.0","","<div class=""circle""></div>","feedback_circle","","","",""
"null","null","html-keyboard-response","263","162261","0.0-263.0","","<div style=""font-size: 48px;"">+</div>
            <p style=""font-size: 16px; text-align: center;"">Trial 43 of 300</p>","iti","","","",""
"null","null","html-keyboard-response","264","162764","0.0-264.0","","<div class=""circle ready""></div>","ready","","","",""
"null","null","html-keyboard-response","265","163666","0.0-265.0","","","isi","","","",""
"null","null","html-keyboard-response","266","164168","0.0-266.0","","<div class=""circle set""></div>","set","500","","",""
"782"," ","html-keyboard-response","267","164951","0.0-267.0","","","go","","900","782","-118"
"null","null","html-keyboard-response","268","165453","0.0-268.0","","<div class=""circle""></div>","feedback_circle","","","",""
"null","null","html-keyboard-response","269","166456","0.0-269.0","","<div style=""font-size: 48px;"">+</div>
            <p style=""font-size: 16px; text-align: center;"">Trial 44 of 300</p>","iti","","","",""
"null","null","html-keyboard-response","270","166957","0.0-270.0","","<div class=""circle ready""></div>","ready","","","",""
"null","null","html-keyboard-response","271","167460","0.0-271.0","","","isi","","","",""
"null","null","html-keyboard-response","272","167961","0.0-272.0","","<div class=""circle set""></div>","set","500","","",""
"503"," ","html-keyboard-response","273","168464","0.0-273.0","","","go","","500","503","3"
"null","null","html-keyboard-response","274","168965","0.0-274.0","","<div class=""circle""></div>","feedback_circle","","","",""
"null","null","html-keyboard-response","275","169968","0.0-275.0","","<div style=""font-size: 48px;"">+</div>
            <p style=""font-size: 16px; text-align: center;"">Trial 45 of 300</p>","iti","","","",""
"null","null","html-keyboard-response","276","170471","0.0-276.0","","<div class=""circle ready""></div>","ready","","","",""
"null","null","html-keyboard-response","277","170973","0.0-277.0","","","isi","","","",""
"null","null","html-keyboard-response","278","171475","0.0-278.0","","<div class=""circle set""></div>","set","500","","",""
"456"," ","html-keyboard-response","279","171933","0.0-279.0","","","go","","500","456","-44"
"null","null","html-keyboard-response","280","172434","0.0-280.0","","<div class=""circle""></div>","feedback_circle","","","",""
"null","null","html-keyboard-response","281","173437","0.0-281.0","","<div style=""font-size: 48px;"">+</div>
            <p style=""font-size: 16px; text-align: center;"">Trial 46 of 300</p>","iti","","","",""
"null","null","html-keyboard-response","282","173940","0.0-282.0","","<div class=""circle ready""></div>","ready","","","",""
"null","null","html-keyboard-response","283","174842","0.0-283.0","","","isi","","","",""
"null","null","html-keyboard-response","284","175345","0.0-284.0","","<div class=""circle set""></div>","set","500","","",""
"684"," ","html-keyboard-response","285","176029","0.0-285.0","","","go","","900","684","-216"
"null","null","html-keyboard-response","286","176531","0.0-286.0","","<div class=""circle""></div>","feedback_circle","","","",""
"null","null","html-keyboard-response","287","177534","0.0-287.0","","<div style=""font-size: 48px;"">+</div>
            <p style=""font-size: 16px; text-align: center;"">Trial 47 of 300</p>","iti","","","",""
"null","null","html-keyboard-response","288","178035","0.0-288.0","","<div class=""circle ready""></div>","ready","","","",""
"null","null","html-keyboard-response","289","178438","0.0-289.0","","","isi","","","",""
"null","null","html-keyboard-response","290","178941","0.0-290.0","","<div class=""circle set""></div>","set","500","","",""
"332"," ","html-keyboard-response","291","179274","0.0-291.0","","","go","","400","332","-68"
"null","null","html-keyboard-response","292","179775","0.0-292.0","","<div class=""circle""></div>","feedback_circle","","","",""
"null","null","html-keyboard-response","293","180778","0.0-293.0","","<div style=""font-size: 48px;"">+</div>
            <p style=""font-size: 16px; text-align: center;"">Trial 48 of 300</p>","iti","","","",""
"null","null","html-keyboard-response","294","181280","0.0-294.0","","<div class=""circle ready""></div>","ready","","","",""
"null","null","html-keyboard-response","295","181583","0.0-295.0","","","isi","","","",""
"null","null","html-keyboard-response","296","182085","0.0-296.0","","<div class=""circle set""></div>","set","500","","",""
"347"," ","html-keyboard-response","297","182433","0.0-297.0","","","go","","300","347","47"
"null","null","html-keyboard-response","298","182934","0.0-298.0","","<div class=""circle""></div>","feedback_circle","","","",""
"null","null","html-keyboard-response","299","183937","0.0-299.0","","<div style=""font-size: 48px;"">+</div>
            <p style=""font-size: 16px; text-align: center;"">Trial 49 of 300</p>","iti","","","",""
"null","null","html-keyboard-response","300","184439","0.0-300.0","","<div class=""circle ready""></div>","ready","","","",""
"null","null","html-keyboard-response","301","185042","0.0-301.0","","","isi","","","",""
"null","null","html-keyboard-response","302","185544","0.0-302.0","","<div class=""circle set""></div>","set","500","","",""
"626"," ","html-keyboard-response","303","186171","0.0-303.0","","","go","","600","626","26"
"null","null","html-keyboard-response","304","186673","0.0-304.0","","<div class=""circle""></div>","feedback_circle","","","",""
"null","null","html-keyboard-response","305","187677","0.0-305.0","","<div style=""font-size: 48px;"">+</div>
            <p style=""font-size: 16px; text-align: center;"">Trial 50 of 300</p>","iti","","","",""
"null","null","html-keyboard-response","306","188179","0.0-306.0","","<div class=""circle ready""></div>","ready","","","",""
"null","null","html-keyboard-response","307","188781","0.0-307.0","","","isi","","","",""
"null","null","html-keyboard-response","308","189284","0.0-308.0","","<div class=""circle set""></div>","set","500","","",""
"574"," ","html-keyboard-response","309","189859","0.0-309.0","","","go","","600","574","-26"
"null","null","html-keyboard-response","310","190360","0.0-310.0","","<div class=""circle""></div>","feedback_circle","","","",""
"null","null","html-keyboard-response","311","191363","0.0-311.0","","<div style=""font-size: 48px;"">+</div>
            <p style=""font-size: 16px; text-align: center;"">Trial 51 of 300</p>","iti","","","",""
"null","null","html-keyboard-response","312","191865","0.0-312.0","","<div class=""circle ready""></div>","ready","","","",""
"null","null","html-keyboard-response","313","192367","0.0-313.0","","","isi","","","",""
"null","null","html-keyboard-response","314","192870","0.0-314.0","","<div class=""circle set""></div>","set","500","","",""
"464"," ","html-keyboard-response","315","193335","0.0-315.0","","","go","","500","464","-36"
"null","null","html-keyboard-response","316","193836","0.0-316.0","","<div class=""circle""></div>","feedback_circle","","","",""
"null","null","html-keyboard-response","317","194839","0.0-317.0","","<div style=""font-size: 48px;"">+</div>
            <p style=""font-size: 16px; text-align: center;"">Trial 52 of 300</p>","iti","","","",""
"null","null","html-keyboard-response","318","195342","0.0-318.0","","<div class=""circle ready""></div>","ready","","","",""
"null","null","html-keyboard-response","319","196044","0.0-319.0","","","isi","","","",""
"null","null","html-keyboard-response","320","196547","0.0-320.0","","<div class=""circle set""></div>","set","500","","",""
"622"," ","html-keyboard-response","321","197170","0.0-321.0","","","go","","700","622","-78"
"null","null","html-keyboard-response","322","197672","0.0-322.0","","<div class=""circle""></div>","feedback_circle","","","",""
"null","null","html-keyboard-response","323","198675","0.0-323.0","","<div style=""font-size: 48px;"">+</div>
            <p style=""font-size: 16px; text-align: center;"">Trial 53 of 300</p>","iti","","","",""
"null","null","html-keyboard-response","324","199176","0.0-324.0","","<div class=""circle ready""></div>","ready","","","",""
"null","null","html-keyboard-response","325","199378","0.0-325.0","","","isi","","","",""
"null","null","html-keyboard-response","326","199880","0.0-326.0","","<div class=""circle set""></div>","set","500","","",""
"161"," ","html-keyboard-response","327","200042","0.0-327.0","","","go","","200","161","-39"
"null","null","html-keyboard-response","328","200543","0.0-328.0","","<div class=""circle""></div>","feedback_circle","","","",""
"null","null","html-keyboard-response","329","201546","0.0-329.0","","<div style=""font-size: 48px;"">+</div>
            <p style=""font-size: 16px; text-align: center;"">Trial 54 of 300</p>","iti","","","",""
"null","null","html-keyboard-response","330","202048","0.0-330.0","","<div class=""circle ready""></div>","ready","","","",""
"null","null","html-keyboard-response","331","202550","0.0-331.0","","","isi","","","",""
"null","null","html-keyboard-response","332","203053","0.0-332.0","","<div class=""circle set""></div>","set","500","","",""
"449"," ","html-keyboard-response","333","203502","0.0-333.0","","","go","","500","449","-51"
"null","null","html-keyboard-response","334","204004","0.0-334.0","","<div class=""circle""></div>","feedback_circle","","","",""
"null","null","html-keyboard-response","335","205007","0.0-335.0","","<div style=""font-size: 48px;"">+</div>
            <p style=""font-size: 16px; text-align: center;"">Trial 55 of 300</p>","iti","","","",""
"null","null","html-keyboard-response","336","205509","0.0-336.0","","<div class=""circle ready""></div>","ready","","","",""
"null","null","html-keyboard-response","337","206012","0.0-337.0","","","isi","","","",""
"null","null","html-keyboard-response","338","206515","0.0-338.0","","<div class=""circle set""></div>","set","500","","",""
"483"," ","html-keyboard-response","339","206998","0.0-339.0","","","go","","500","483","-17"
"null","null","html-keyboard-response","340","207500","0.0-340.0","","<div class=""circle""></div>","feedback_circle","","","",""
"null","null","html-keyboard-response","341","208503","0.0-341.0","","<div style=""font-size: 48px;"">+</div>
            <p style=""font-size: 16px; text-align: center;"">Trial 56 of 300</p>","iti","","","",""
"null","null","html-keyboard-response","342","209005","0.0-342.0","","<div class=""circle ready""></div>","ready","","","",""
"null","null","html-keyboard-response","343","209408","0.0-343.0","","","isi","","","",""
"null","null","html-keyboard-response","344","209910","0.0-344.0","","<div class=""circle set""></div>","set","500","","",""
"427"," ","html-keyboard-response","345","210338","0.0-345.0","","","go","","400","427","27"
"null","null","html-keyboard-response","346","210840","0.0-346.0","","<div class=""circle""></div>","feedback_circle","","","",""
"null","null","html-keyboard-response","347","211842","0.0-347.0","","<div style=""font-size: 48px;"">+</div>
            <p style=""font-size: 16px; text-align: center;"">Trial 57 of 300</p>","iti","","","",""
"null","null","html-keyboard-response","348","212344","0.0-348.0","","<div class=""circle ready""></div>","ready","","","",""
"null","null","html-keyboard-response","349","213047","0.0-349.0","","","isi","","","",""
"null","null","html-keyboard-response","350","213549","0.0-350.0","","<div class=""circle set""></div>","set","500","","",""
"604"," ","html-keyboard-response","351","214154","0.0-351.0","","","go","","700","604","-96"
"null","null","html-keyboard-response","352","214656","0.0-352.0","","<div class=""circle""></div>","feedback_circle","","","",""
"null","null","html-keyboard-response","353","215659","0.0-353.0","","<div style=""font-size: 48px;"">+</div>
            <p style=""font-size: 16px; text-align: center;"">Trial 58 of 300</p>","iti","","","",""
"null","null","html-keyboard-response","354","216162","0.0-354.0","","<div class=""circle ready""></div>","ready","","","",""
"null","null","html-keyboard-response","355","216464","0.0-355.0","","","isi","","","",""
"null","null","html-keyboard-response","356","216966","0.0-356.0","","<div class=""circle set""></div>","set","500","","",""
"151"," ","html-keyboard-response","357","217119","0.0-357.0","","","go","","300","151","-149"
"null","null","html-keyboard-response","358","217620","0.0-358.0","","<div class=""circle""></div>","feedback_circle","","","",""
"null","null","html-keyboard-response","359","218622","0.0-359.0","","<div style=""font-size: 48px;"">+</div>
            <p style=""font-size: 16px; text-align: center;"">Trial 59 of 300</p>","iti","","","",""
"null","null","html-keyboard-response","360","219125","0.0-360.0","","<div class=""circle ready""></div>","ready","","","",""
"null","null","html-keyboard-response","361","219828","0.0-361.0","","","isi","","","",""
"null","null","html-keyboard-response","362","220330","0.0-362.0","","<div class=""circle set""></div>","set","500","","",""
"592"," ","html-keyboard-response","363","220923","0.0-363.0","","","go","","700","592","-108"
"null","null","html-keyboard-response","364","221424","0.0-364.0","","<div class=""circle""></div>","feedback_circle","","","",""
"null","null","html-keyboard-response","365","222427","0.0-365.0","","<div style=""font-size: 48px;"">+</div>
            <p style=""font-size: 16px; text-align: center;"">Trial 60 of 300</p>","iti","","","",""
"null","null","html-keyboard-response","366","222930","0.0-366.0","","<div class=""circle ready""></div>","ready","","","",""
"null","null","html-keyboard-response","367","223433","0.0-367.0","","","isi","","","",""
"null","null","html-keyboard-response","368","223935","0.0-368.0","","<div class=""circle set""></div>","set","500","","",""
"556"," ","html-keyboard-response","369","224492","0.0-369.0","","","go","","500","556","56"
"null","null","html-keyboard-response","370","224993","0.0-370.0","","<div class=""circle""></div>","feedback_circle","","","",""
"null","null","html-keyboard-response","371","225996","0.0-371.0","","<div style=""font-size: 48px;"">+</div>
            <p style=""font-size: 16px; text-align: center;"">Trial 61 of 300</p>","iti","","","",""
"null","null","html-keyboard-response","372","226499","0.0-372.0","","<div class=""circle ready""></div>","ready","","","",""
"null","null","html-keyboard-response","373","227002","0.0-373.0","","","isi","","","",""
"null","null","html-keyboard-response","374","227504","0.0-374.0","","<div class=""circle set""></div>","set","500","","",""
"560"," ","html-keyboard-response","375","228065","0.0-375.0","","","go","","500","560","60"
"null","null","html-keyboard-response","376","228566","0.0-376.0","","<div class=""circle""></div>","feedback_circle","","","",""
"null","null","html-keyboard-response","377","229570","0.0-377.0","","<div style=""font-size: 48px;"">+</div>
            <p style=""font-size: 16px; text-align: center;"">Trial 62 of 300</p>","iti","","","",""
"null","null","html-keyboard-response","378","230072","0.0-378.0","","<div class=""circle ready""></div>","ready","","","",""
"null","null","html-keyboard-response","379","230674","0.0-379.0","","","isi","","","",""
"null","null","html-keyboard-response","380","231177","0.0-380.0","","<div class=""circle set""></div>","set","500","","",""
"508"," ","html-keyboard-response","381","231685","0.0-381.0","","","go","","600","508","-92"
"null","null","html-keyboard-response","382","232187","0.0-382.0","","<div class=""circle""></div>","feedback_circle","","","",""
"null","null","html-keyboard-response","383","233189","0.0-383.0","","<div style=""font-size: 48px;"">+</div>
            <p style=""font-size: 16px; text-align: center;"">Trial 63 of 300</p>","iti","","","",""
"null","null","html-keyboard-response","384","233692","0.0-384.0","","<div class=""circle ready""></div>","ready","","","",""
"null","null","html-keyboard-response","385","234394","0.0-385.0","","","isi","","","",""
"null","null","html-keyboard-response","386","234897","0.0-386.0","","<div class=""circle set""></div>","set","500","","",""
"767"," ","html-keyboard-response","387","235664","0.0-387.0","","","go","","700","767","67"
"null","null","html-keyboard-response","388","236165","0.0-388.0","","<div class=""circle""></div>","feedback_circle","","","",""
"null","null","html-keyboard-response","389","237169","0.0-389.0","","<div style=""font-size: 48px;"">+</div>
            <p style=""font-size: 16px; text-align: center;"">Trial 64 of 300</p>","iti","","","",""
"null","null","html-keyboard-response","390","237671","0.0-390.0","","<div class=""circle ready""></div>","ready","","","",""
"null","null","html-keyboard-response","391","238373","0.0-391.0","","","isi","","","",""
"null","null","html-keyboard-response","392","238876","0.0-392.0","","<div class=""circle set""></div>","set","500","","",""
"686"," ","html-keyboard-response","393","239563","0.0-393.0","","","go","","700","686","-14"
"null","null","html-keyboard-response","394","240065","0.0-394.0","","<div class=""circle""></div>","feedback_circle","","","",""
"null","null","html-keyboard-response","395","241067","0.0-395.0","","<div style=""font-size: 48px;"">+</div>
            <p style=""font-size: 16px; text-align: center;"">Trial 65 of 300</p>","iti","","","",""
"null","null","html-keyboard-response","396","241569","0.0-396.0","","<div class=""circle ready""></div>","ready","","","",""
"null","null","html-keyboard-response","397","242171","0.0-397.0","","","isi","","","",""
"null","null","html-keyboard-response","398","242674","0.0-398.0","","<div class=""circle set""></div>","set","500","","",""
"651"," ","html-keyboard-response","399","243326","0.0-399.0","","","go","","600","651","51"
"null","null","html-keyboard-response","400","243827","0.0-400.0","","<div class=""circle""></div>","feedback_circle","","","",""
"null","null","html-keyboard-response","401","244830","0.0-401.0","","<div style=""font-size: 48px;"">+</div>
            <p style=""font-size: 16px; text-align: center;"">Trial 66 of 300</p>","iti","","","",""
"null","null","html-keyboard-response","402","245333","0.0-402.0","","<div class=""circle ready""></div>","ready","","","",""
"null","null","html-keyboard-response","403","245936","0.0-403.0","","","isi","","","",""
"null","null","html-keyboard-response","404","246439","0.0-404.0","","<div class=""circle set""></div>","set","500","","",""
"673"," ","html-keyboard-response","405","247113","0.0-405.0","","","go","","600","673","73"
"null","null","html-keyboard-response","406","247614","0.0-406.0","","<div class=""circle""></div>","feedback_circle","","","",""
"null","null","html-keyboard-response","407","248617","0.0-407.0","","<div style=""font-size: 48px;"">+</div>
            <p style=""font-size: 16px; text-align: center;"">Trial 67 of 300</p>","iti","","","",""
"null","null","html-keyboard-response","408","249119","0.0-408.0","","<div class=""circle ready""></div>","ready","","","",""
"null","null","html-keyboard-response","409","249622","0.0-409.0","","","isi","","","",""
"null","null","html-keyboard-response","410","250125","0.0-410.0","","<div class=""circle set""></div>","set","500","","",""
"561"," ","html-keyboard-response","411","250686","0.0-411.0","","","go","","500","561","61"
"null","null","html-keyboard-response","412","251187","0.0-412.0","","<div class=""circle""></div>","feedback_circle","","","",""
"null","null","html-keyboard-response","413","252190","0.0-413.0","","<div style=""font-size: 48px;"">+</div>
            <p style=""font-size: 16px; text-align: center;"">Trial 68 of 300</p>","iti","","","",""
"null","null","html-keyboard-response","414","252692","0.0-414.0","","<div class=""circle ready""></div>","ready","","","",""
"null","null","html-keyboard-response","415","253495","0.0-415.0","","","isi","","","",""
"null","null","html-keyboard-response","416","253998","0.0-416.0","","<div class=""circle set""></div>","set","500","","",""
"748"," ","html-keyboard-response","417","254747","0.0-417.0","","","go","","800","748","-52"
"null","null","html-keyboard-response","418","255248","0.0-418.0","","<div class=""circle""></div>","feedback_circle","","","",""
"null","null","html-keyboard-response","419","256250","0.0-419.0","","<div style=""font-size: 48px;"">+</div>
            <p style=""font-size: 16px; text-align: center;"">Trial 69 of 300</p>","iti","","","",""
"null","null","html-keyboard-response","420","256751","0.0-420.0","","<div class=""circle ready""></div>","ready","","","",""
"null","null","html-keyboard-response","421","257354","0.0-421.0","","","isi","","","",""
"null","null","html-keyboard-response","422","257856","0.0-422.0","","<div class=""circle set""></div>","set","500","","",""
"641"," ","html-keyboard-response","423","258498","0.0-423.0","","","go","","600","641","41"
"null","null","html-keyboard-response","424","259000","0.0-424.0","","<div class=""circle""></div>","feedback_circle","","","",""
"null","null","html-keyboard-response","425","260002","0.0-425.0","","<div style=""font-size: 48px;"">+</div>
            <p style=""font-size: 16px; text-align: center;"">Trial 70 of 300</p>","iti","","","",""
"null","null","html-keyboard-response","426","260503","0.0-426.0","","<div class=""circle ready""></div>","ready","","","",""
"null","null","html-keyboard-response","427","260804","0.0-427.0","","","isi","","","",""
"null","null","html-keyboard-response","428","261307","0.0-428.0","","<div class=""circle set""></div>","set","500","","",""
"360"," ","html-keyboard-response","429","261668","0.0-429.0","","","go","","300","360","60"
"null","null","html-keyboard-response","430","262168","0.0-430.0","","<div class=""circle""></div>","feedback_circle","","","",""
"null","null","html-keyboard-response","431","263171","0.0-431.0","","<div style=""font-size: 48px;"">+</div>
            <p style=""font-size: 16px; text-align: center;"">Trial 71 of 300</p>","iti","","","",""
"null","null","html-keyboard-response","432","263673","0.0-432.0","","<div class=""circle ready""></div>","ready","","","",""
"null","null","html-keyboard-response","433","264575","0.0-433.0","","","isi","","","",""
"null","null","html-keyboard-response","434","265077","0.0-434.0","","<div class=""circle set""></div>","set","500","","",""
"870"," ","html-keyboard-response","435","265948","0.0-435.0","","","go","","900","870","-30"
"null","null","html-keyboard-response","436","266450","0.0-436.0","","<div class=""circle""></div>","feedback_circle","","","",""
"null","null","html-keyboard-response","437","267452","0.0-437.0","","<div style=""font-size: 48px;"">+</div>
            <p style=""font-size: 16px; text-align: center;"">Trial 72 of 300</p>","iti","","","",""
"null","null","html-keyboard-response","438","267953","0.0-438.0","","<div class=""circle ready""></div>","ready","","","",""
"null","null","html-keyboard-response","439","268455","0.0-439.0","","","isi","","","",""
"null","null","html-keyboard-response","440","268956","0.0-440.0","","<div class=""circle set""></div>","set","500","","",""
"436"," ","html-keyboard-response","441","269393","0.0-441.0","","","go","","500","436","-64"
"null","null","html-keyboard-response","442","269894","0.0-442.0","","<div class=""circle""></div>","feedback_circle","","","",""
"null","null","html-keyboard-response","443","270897","0.0-443.0","","<div style=""font-size: 48px;"">+</div>
            <p style=""font-size: 16px; text-align: center;"">Trial 73 of 300</p>","iti","","","",""
"null","null","html-keyboard-response","444","271400","0.0-444.0","","<div class=""circle ready""></div>","ready","","","",""
"null","null","html-keyboard-response","445","271602","0.0-445.0","","","isi","","","",""
"null","null","html-keyboard-response","446","272104","0.0-446.0","","<div class=""circle set""></div>","set","500","","",""
"146"," ","html-keyboard-response","447","272251","0.0-447.0","","","go","","200","146","-54"
"null","null","html-keyboard-response","448","272752","0.0-448.0","","<div class=""circle""></div>","feedback_circle","","","",""
"null","null","html-keyboard-response","449","273755","0.0-449.0","","<div style=""font-size: 48px;"">+</div>
            <p style=""font-size: 16px; text-align: center;"">Trial 74 of 300</p>","iti","","","",""
"null","null","html-keyboard-response","450","274258","0.0-450.0","","<div class=""circle ready""></div>","ready","","","",""
"null","null","html-keyboard-response","451","275060","0.0-451.0","","","isi","","","",""
"null","null","html-keyboard-response","452","275563","0.0-452.0","","<div class=""circle set""></div>","set","500","","",""
"800"," ","html-keyboard-response","453","276364","0.0-453.0","","","go","","800","800","0"
"null","null","html-keyboard-response","454","276865","0.0-454.0","","<div class=""circle""></div>","feedback_circle","","","",""
"null","null","html-keyboard-response","455","277868","0.0-455.0","","<div style=""font-size: 48px;"">+</div>
            <p style=""font-size: 16px; text-align: center;"">Trial 75 of 300</p>","iti","","","",""
"null","null","html-keyboard-response","456","278371","0.0-456.0","","<div class=""circle ready""></div>","ready","","","",""
"null","null","html-keyboard-response","457","278573","0.0-457.0","","","isi","","","",""
"null","null","html-keyboard-response","458","279076","0.0-458.0","","<div class=""circle set""></div>","set","500","","",""
"242"," ","html-keyboard-response","459","279318","0.0-459.0","","","go","","200","242","42"
"null","null","html-keyboard-response","460","279820","0.0-460.0","","<div class=""circle""></div>","feedback_circle","","","",""
"null","null","html-keyboard-response","461","280823","0.0-461.0","","<div style=""font-size: 48px;"">+</div>
            <p style=""font-size: 16px; text-align: center;"">Trial 76 of 300</p>","iti","","","",""
"null","null","html-keyboard-response","462","281325","0.0-462.0","","<div class=""circle ready""></div>","ready","","","",""
"null","null","html-keyboard-response","463","281928","0.0-463.0","","","isi","","","",""
"null","null","html-keyboard-response","464","282430","0.0-464.0","","<div class=""circle set""></div>","set","500","","",""
"743"," ","html-keyboard-response","465","283174","0.0-465.0","","","go","","600","743","143"
"null","null","html-keyboard-response","466","283676","0.0-466.0","","<div class=""circle""></div>","feedback_circle","","","",""
"null","null","html-keyboard-response","467","284678","0.0-467.0","","<div style=""font-size: 48px;"">+</div>
            <p style=""font-size: 16px; text-align: center;"">Trial 77 of 300</p>","iti","","","",""
"null","null","html-keyboard-response","468","285180","0.0-468.0","","<div class=""circle ready""></div>","ready","","","",""
"null","null","html-keyboard-response","469","285682","0.0-469.0","","","isi","","","",""
"null","null","html-keyboard-response","470","286184","0.0-470.0","","<div class=""circle set""></div>","set","500","","",""
"608"," ","html-keyboard-response","471","286793","0.0-471.0","","","go","","500","608","108"
"null","null","html-keyboard-response","472","287295","0.0-472.0","","<div class=""circle""></div>","feedback_circle","","","",""
"null","null","html-keyboard-response","473","288298","0.0-473.0","","<div style=""font-size: 48px;"">+</div>
            <p style=""font-size: 16px; text-align: center;"">Trial 78 of 300</p>","iti","","","",""
"null","null","html-keyboard-response","474","288801","0.0-474.0","","<div class=""circle ready""></div>","ready","","","",""
"null","null","html-keyboard-response","475","289703","0.0-475.0","","","isi","","","",""
"null","null","html-keyboard-response","476","290206","0.0-476.0","","<div class=""circle set""></div>","set","500","","",""
"743"," ","html-keyboard-response","477","290950","0.0-477.0","","","go","","900","743","-157"
"null","null","html-keyboard-response","478","291451","0.0-478.0","","<div class=""circle""></div>","feedback_circle","","","",""
"null","null","html-keyboard-response","479","292454","0.0-479.0","","<div style=""font-size: 48px;"">+</div>
            <p style=""font-size: 16px; text-align: center;"">Trial 79 of 300</p>","iti","","","",""
"null","null","html-keyboard-response","480","292957","0.0-480.0","","<div class=""circle ready""></div>","ready","","","",""
"null","null","html-keyboard-response","481","293460","0.0-481.0","","","isi","","","",""
"null","null","html-keyboard-response","482","293963","0.0-482.0","","<div class=""circle set""></div>","set","500","","",""
"392"," ","html-keyboard-response","483","294355","0.0-483.0","","","go","","500","392","-108"
"null","null","html-keyboard-response","484","294857","0.0-484.0","","<div class=""circle""></div>","feedback_circle","","","",""
"null","null","html-keyboard-response","485","295860","0.0-485.0","","<div style=""font-size: 48px;"">+</div>
            <p style=""font-size: 16px; text-align: center;"">Trial 80 of 300</p>","iti","","","",""
"null","null","html-keyboard-response","486","296363","0.0-486.0","","<div class=""circle ready""></div>","ready","","","",""
"null","null","html-keyboard-response","487","296666","0.0-487.0","","","isi","","","",""
"null","null","html-keyboard-response","488","297168","0.0-488.0","","<div class=""circle set""></div>","set","500","","",""
"367"," ","html-keyboard-response","489","297536","0.0-489.0","","","go","","300","367","67"
"null","null","html-keyboard-response","490","298037","0.0-490.0","","<div class=""circle""></div>","feedback_circle","","","",""
"null","null","html-keyboard-response","491","299040","0.0-491.0","","<div style=""font-size: 48px;"">+</div>
            <p style=""font-size: 16px; text-align: center;"">Trial 81 of 300</p>","iti","","","",""
"null","null","html-keyboard-response","492","299542","0.0-492.0","","<div class=""circle ready""></div>","ready","","","",""
"null","null","html-keyboard-response","493","299944","0.0-493.0","","","isi","","","",""
"null","null","html-keyboard-response","494","300446","0.0-494.0","","<div class=""circle set""></div>","set","500","","",""
"484"," ","html-keyboard-response","495","300931","0.0-495.0","","","go","","400","484","84"
"null","null","html-keyboard-response","496","301433","0.0-496.0","","<div class=""circle""></div>","feedback_circle","","","",""
"null","null","html-keyboard-response","497","302436","0.0-497.0","","<div style=""font-size: 48px;"">+</div>
            <p style=""font-size: 16px; text-align: center;"">Trial 82 of 300</p>","iti","","","",""
"null","null","html-keyboard-response","498","302938","0.0-498.0","","<div class=""circle ready""></div>","ready","","","",""
"null","null","html-keyboard-response","499","303440","0.0-499.0","","","isi","","","",""
"null","null","html-keyboard-response","500","303942","0.0-500.0","","<div class=""circle set""></div>","set","500","","",""
"493"," ","html-keyboard-response","501","304436","0.0-501.0","","","go","","500","493","-7"
"null","null","html-keyboard-response","502","304938","0.0-502.0","","<div class=""circle""></div>","feedback_circle","","","",""
"null","null","html-keyboard-response","503","305940","0.0-503.0","","<div style=""font-size: 48px;"">+</div>
            <p style=""font-size: 16px; text-align: center;"">Trial 83 of 300</p>","iti","","","",""
"null","null","html-keyboard-response","504","306443","0.0-504.0","","<div class=""circle ready""></div>","ready","","","",""
"null","null","html-keyboard-response","505","306645","0.0-505.0","","","isi","","","",""
"null","null","html-keyboard-response","506","307147","0.0-506.0","","<div class=""circle set""></div>","set","500","","",""
"280"," ","html-keyboard-response","507","307428","0.0-507.0","","","go","","200","280","80"
"null","null","html-keyboard-response","508","307929","0.0-508.0","","<div class=""circle""></div>","feedback_circle","","","",""
"null","null","html-keyboard-response","509","308932","0.0-509.0","","<div style=""font-size: 48px;"">+</div>
            <p style=""font-size: 16px; text-align: center;"">Trial 84 of 300</p>","iti","","","",""
"null","null","html-keyboard-response","510","309434","0.0-510.0","","<div class=""circle ready""></div>","ready","","","",""
"null","null","html-keyboard-response","511","309636","0.0-511.0","","","isi","","","",""
"null","null","html-keyboard-response","512","310138","0.0-512.0","","<div class=""circle set""></div>","set","500","","",""
"277"," ","html-keyboard-response","513","310416","0.0-513.0","","","go","","200","277","77"
"null","null","html-keyboard-response","514","310917","0.0-514.0","","<div class=""circle""></div>","feedback_circle","","","",""
"null","null","html-keyboard-response","515","311920","0.0-515.0","","<div style=""font-size: 48px;"">+</div>
            <p style=""font-size: 16px; text-align: center;"">Trial 85 of 300</p>","iti","","","",""
"null","null","html-keyboard-response","516","312422","0.0-516.0","","<div class=""circle ready""></div>","ready","","","",""
"null","null","html-keyboard-response","517","313124","0.0-517.0","","","isi","","","",""
"null","null","html-keyboard-response","518","313627","0.0-518.0","","<div class=""circle set""></div>","set","500","","",""
"626"," ","html-keyboard-response","519","314254","0.0-519.0","","","go","","700","626","-74"
"null","null","html-keyboard-response","520","314755","0.0-520.0","","<div class=""circle""></div>","feedback_circle","","","",""
"null","null","html-keyboard-response","521","315757","0.0-521.0","","<div style=""font-size: 48px;"">+</div>
            <p style=""font-size: 16px; text-align: center;"">Trial 86 of 300</p>","iti","","","",""
"null","null","html-keyboard-response","522","316259","0.0-522.0","","<div class=""circle ready""></div>","ready","","","",""
"null","null","html-keyboard-response","523","317061","0.0-523.0","","","isi","","","",""
"null","null","html-keyboard-response","524","317564","0.0-524.0","","<div class=""circle set""></div>","set","500","","",""
"864"," ","html-keyboard-response","525","318428","0.0-525.0","","","go","","800","864","64"
"null","null","html-keyboard-response","526","318929","0.0-526.0","","<div class=""circle""></div>","feedback_circle","","","",""
"null","null","html-keyboard-response","527","319931","0.0-527.0","","<div style=""font-size: 48px;"">+</div>
            <p style=""font-size: 16px; text-align: center;"">Trial 87 of 300</p>","iti","","","",""
"null","null","html-keyboard-response","528","320434","0.0-528.0","","<div class=""circle ready""></div>","ready","","","",""
"null","null","html-keyboard-response","529","320736","0.0-529.0","","","isi","","","",""
"null","null","html-keyboard-response","530","321238","0.0-530.0","","<div class=""circle set""></div>","set","500","","",""
"365"," ","html-keyboard-response","531","321604","0.0-531.0","","","go","","300","365","65"
"null","null","html-keyboard-response","532","322106","0.0-532.0","","<div class=""circle""></div>","feedback_circle","","","",""
"null","null","html-keyboard-response","533","323109","0.0-533.0","","<div style=""font-size: 48px;"">+</div>
            <p style=""font-size: 16px; text-align: center;"">Trial 88 of 300</p>","iti","","","",""
"null","null","html-keyboard-response","534","323612","0.0-534.0","","<div class=""circle ready""></div>","ready","","","",""
"null","null","html-keyboard-response","535","324014","0.0-535.0","","","isi","","","",""
"null","null","html-keyboard-response","536","324517","0.0-536.0","","<div class=""circle set""></div>","set","500","","",""
"481"," ","html-keyboard-response","537","324999","0.0-537.0","","","go","","400","481","81"
"null","null","html-keyboard-response","538","325500","0.0-538.0","","<div class=""circle""></div>","feedback_circle","","","",""
"null","null","html-keyboard-response","539","326502","0.0-539.0","","<div style=""font-size: 48px;"">+</div>
            <p style=""font-size: 16px; text-align: center;"">Trial 89 of 300</p>","iti","","","",""
"null","null","html-keyboard-response","540","327004","0.0-540.0","","<div class=""circle ready""></div>","ready","","","",""
"null","null","html-keyboard-response","541","327907","0.0-541.0","","","isi","","","",""
"null","null","html-keyboard-response","542","328410","0.0-542.0","","<div class=""circle set""></div>","set","500","","",""
"983"," ","html-keyboard-response","543","329394","0.0-543.0","","","go","","900","983","83"
"null","null","html-keyboard-response","544","329895","0.0-544.0","","<div class=""circle""></div>","feedback_circle","","","",""
"null","null","html-keyboard-response","545","330898","0.0-545.0","","<div style=""font-size: 48px;"">+</div>
            <p style=""font-size: 16px; text-align: center;"">Trial 90 of 300</p>","iti","","","",""
"null","null","html-keyboard-response","546","331401","0.0-546.0","","<div class=""circle ready""></div>","ready","","","",""
"null","null","html-keyboard-response","547","331903","0.0-547.0","","","isi","","","",""
"null","null","html-keyboard-response","548","332406","0.0-548.0","","<div class=""circle set""></div>","set","500","","",""
"792"," ","html-keyboard-response","549","333199","0.0-549.0","","","go","","500","792","292"
"null","null","html-keyboard-response","550","333701","0.0-550.0","","<div class=""circle""></div>","feedback_circle","","","",""
"null","null","html-keyboard-response","551","334703","0.0-551.0","","<div style=""font-size: 48px;"">+</div>
            <p style=""font-size: 16px; text-align: center;"">Trial 91 of 300</p>","iti","","","",""
"null","null","html-keyboard-response","552","335206","0.0-552.0","","<div class=""circle ready""></div>","ready","","","",""
"null","null","html-keyboard-response","553","336008","0.0-553.0","","","isi","","","",""
"null","null","html-keyboard-response","554","336510","0.0-554.0","","<div class=""circle set""></div>","set","500","","",""
"948"," ","html-keyboard-response","555","337459","0.0-555.0","","","go","","800","948","148"
"null","null","html-keyboard-response","556","337960","0.0-556.0","","<div class=""circle""></div>","feedback_circle","","","",""
"null","null","html-keyboard-response","557","338963","0.0-557.0","","<div style=""font-size: 48px;"">+</div>
            <p style=""font-size: 16px; text-align: center;"">Trial 92 of 300</p>","iti","","","",""
"null","null","html-keyboard-response","558","339465","0.0-558.0","","<div class=""circle ready""></div>","ready","","","",""
"null","null","html-keyboard-response","559","340067","0.0-559.0","","","isi","","","",""
"null","null","html-keyboard-response","560","340570","0.0-560.0","","<div class=""circle set""></div>","set","500","","",""
"883"," ","html-keyboard-response","561","341454","0.0-561.0","","","go","","600","883","283"
"null","null","html-keyboard-response","562","341955","0.0-562.0","","<div class=""circle""></div>","feedback_circle","","","",""
"null","null","html-keyboard-response","563","342959","0.0-563.0","","<div style=""font-size: 48px;"">+</div>
            <p style=""font-size: 16px; text-align: center;"">Trial 93 of 300</p>","iti","","","",""
"null","null","html-keyboard-response","564","343461","0.0-564.0","","<div class=""circle ready""></div>","ready","","","",""
"null","null","html-keyboard-response","565","343763","0.0-565.0","","","isi","","","",""
"null","null","html-keyboard-response","566","344266","0.0-566.0","","<div class=""circle set""></div>","set","500","","",""
"280"," ","html-keyboard-response","567","344546","0.0-567.0","","","go","","300","280","-20"
"null","null","html-keyboard-response","568","345047","0.0-568.0","","<div class=""circle""></div>","feedback_circle","","","",""
"null","null","html-keyboard-response","569","346050","0.0-569.0","","<div style=""font-size: 48px;"">+</div>
            <p style=""font-size: 16px; text-align: center;"">Trial 94 of 300</p>","iti","","","",""
"null","null","html-keyboard-response","570","346552","0.0-570.0","","<div class=""circle ready""></div>","ready","","","",""
"null","null","html-keyboard-response","571","347453","0.0-571.0","","","isi","","","",""
"null","null","html-keyboard-response","572","347955","0.0-572.0","","<div class=""circle set""></div>","set","500","","",""
"1065"," ","html-keyboard-response","573","349021","0.0-573.0","","","go","","900","1065","165"
"null","null","html-keyboard-response","574","349523","0.0-574.0","","<div class=""circle""></div>","feedback_circle","","","",""
"null","null","html-keyboard-response","575","350525","0.0-575.0","","<div style=""font-size: 48px;"">+</div>
            <p style=""font-size: 16px; text-align: center;"">Trial 95 of 300</p>","iti","","","",""
"null","null","html-keyboard-response","576","351027","0.0-576.0","","<div class=""circle ready""></div>","ready","","","",""
"null","null","html-keyboard-response","577","351429","0.0-577.0","","","isi","","","",""
"null","null","html-keyboard-response","578","351931","0.0-578.0","","<div class=""circle set""></div>","set","500","","",""
"560"," ","html-keyboard-response","579","352492","0.0-579.0","","","go","","400","560","160"
"null","null","html-keyboard-response","580","352994","0.0-580.0","","<div class=""circle""></div>","feedback_circle","","","",""
"null","null","html-keyboard-response","581","353997","0.0-581.0","","<div style=""font-size: 48px;"">+</div>
            <p style=""font-size: 16px; text-align: center;"">Trial 96 of 300</p>","iti","","","",""
"null","null","html-keyboard-response","582","354499","0.0-582.0","","<div class=""circle ready""></div>","ready","","","",""
"null","null","html-keyboard-response","583","355001","0.0-583.0","","","isi","","","",""
"null","null","html-keyboard-response","584","355504","0.0-584.0","","<div class=""circle set""></div>","set","500","","",""
"627"," ","html-keyboard-response","585","356131","0.0-585.0","","","go","","500","627","127"
"null","null","html-keyboard-response","586","356633","0.0-586.0","","<div class=""circle""></div>","feedback_circle","","","",""
"null","null","html-keyboard-response","587","357635","0.0-587.0","","<div style=""font-size: 48px;"">+</div>
            <p style=""font-size: 16px; text-align: center;"">Trial 97 of 300</p>","iti","","","",""
"null","null","html-keyboard-response","588","358137","0.0-588.0","","<div class=""circle ready""></div>","ready","","","",""
"null","null","html-keyboard-response","589","358740","0.0-589.0","","","isi","","","",""
"null","null","html-keyboard-response","590","359242","0.0-590.0","","<div class=""circle set""></div>","set","500","","",""
"735"," ","html-keyboard-response","591","359977","0.0-591.0","","","go","","600","735","135"
"null","null","html-keyboard-response","592","360478","0.0-592.0","","<div class=""circle""></div>","feedback_circle","","","",""
"null","null","html-keyboard-response","593","361481","0.0-593.0","","<div style=""font-size: 48px;"">+</div>
            <p style=""font-size: 16px; text-align: center;"">Trial 98 of 300</p>","iti","","","",""
"null","null","html-keyboard-response","594","361983","0.0-594.0","","<div class=""circle ready""></div>","ready","","","",""
"null","null","html-keyboard-response","595","362185","0.0-595.0","","","isi","","","",""
"null","null","html-keyboard-response","596","362688","0.0-596.0","","<div class=""circle set""></div>","set","500","","",""
"268"," ","html-keyboard-response","597","362957","0.0-597.0","","","go","","200","268","68"
"null","null","html-keyboard-response","598","363459","0.0-598.0","","<div class=""circle""></div>","feedback_circle","","","",""
"null","null","html-keyboard-response","599","364462","0.0-599.0","","<div style=""font-size: 48px;"">+</div>
            <p style=""font-size: 16px; text-align: center;"">Trial 99 of 300</p>","iti","","","",""
"null","null","html-keyboard-response","600","364964","0.0-600.0","","<div class=""circle ready""></div>","ready","","","",""
"null","null","html-keyboard-response","601","365767","0.0-601.0","","","isi","","","",""
"null","null","html-keyboard-response","602","366269","0.0-602.0","","<div class=""circle set""></div>","set","500","","",""
"690"," ","html-keyboard-response","603","366960","0.0-603.0","","","go","","800","690","-110"
"null","null","html-keyboard-response","604","367461","0.0-604.0","","<div class=""circle""></div>","feedback_circle","","","",""
"null","null","html-keyboard-response","605","368464","0.0-605.0","","<div style=""font-size: 48px;"">+</div>
            <p style=""font-size: 16px; text-align: center;"">Trial 100 of 300</p>","iti","","","",""
"null","null","html-keyboard-response","606","368966","0.0-606.0","","<div class=""circle ready""></div>","ready","","","",""
"null","null","html-keyboard-response","607","369268","0.0-607.0","","","isi","","","",""
"null","null","html-keyboard-response","608","369771","0.0-608.0","","<div class=""circle set""></div>","set","500","","",""
"400"," ","html-keyboard-response","609","370172","0.0-609.0","","","go","","300","400","100"
"null","null","html-keyboard-response","610","370673","0.0-610.0","","<div class=""circle""></div>","feedback_circle","","","",""
"null","null","html-keyboard-response","611","371676","0.0-611.0","","<div style=""font-size: 48px;"">+</div>
            <p style=""font-size: 16px; text-align: center;"">Trial 101 of 300</p>","iti","","","",""
"46978"," ","html-keyboard-response","612","418654","0.0-612.0","","<p><strong>Block change. Please press any key to continue.</strong></p>","block_transition","","","",""
"null","null","html-keyboard-response","613","419155","0.0-613.0","","<div class=""circle ready""></div>","ready","","","",""
"null","null","html-keyboard-response","614","420557","0.0-614.0","","","isi","","","",""
"null","null","html-keyboard-response","615","421060","0.0-615.0","","<div class=""circle set""></div>","set","500","","",""
"1234"," ","html-keyboard-response","616","422295","0.0-616.0","","","go","","1400","1234","-166"
"null","null","html-keyboard-response","617","422797","0.0-617.0","","<div class=""circle""></div>","feedback_circle","","","",""
"null","null","html-keyboard-response","618","423800","0.0-618.0","","<div style=""font-size: 48px;"">+</div>
            <p style=""font-size: 16px; text-align: center;"">Trial 102 of 300</p>","iti","","","",""
"null","null","html-keyboard-response","619","424301","0.0-619.0","","<div class=""circle ready""></div>","ready","","","",""
"null","null","html-keyboard-response","620","425504","0.0-620.0","","","isi","","","",""
"null","null","html-keyboard-response","621","426006","0.0-621.0","","<div class=""circle set""></div>","set","500","","",""
"1287"," ","html-keyboard-response","622","427294","0.0-622.0","","","go","","1200","1287","87"
"null","null","html-keyboard-response","623","427796","0.0-623.0","","<div class=""circle""></div>","feedback_circle","","","",""
"null","null","html-keyboard-response","624","428798","0.0-624.0","","<div style=""font-size: 48px;"">+</div>
            <p style=""font-size: 16px; text-align: center;"">Trial 103 of 300</p>","iti","","","",""
"null","null","html-keyboard-response","625","429300","0.0-625.0","","<div class=""circle ready""></div>","ready","","","",""
"null","null","html-keyboard-response","626","430403","0.0-626.0","","","isi","","","",""
"null","null","html-keyboard-response","627","430905","0.0-627.0","","<div class=""circle set""></div>","set","500","","",""
"1216"," ","html-keyboard-response","628","432122","0.0-628.0","","","go","","1100","1216","116"
"null","null","html-keyboard-response","629","432623","0.0-629.0","","<div class=""circle""></div>","feedback_circle","","","",""
"null","null","html-keyboard-response","630","433626","0.0-630.0","","<div style=""font-size: 48px;"">+</div>
            <p style=""font-size: 16px; text-align: center;"">Trial 104 of 300</p>","iti","","","",""
"null","null","html-keyboard-response","631","434127","0.0-631.0","","<div class=""circle ready""></div>","ready","","","",""
"null","null","html-keyboard-response","632","435429","0.0-632.0","","","isi","","","",""
"null","null","html-keyboard-response","633","435932","0.0-633.0","","<div class=""circle set""></div>","set","500","","",""
"1237"," ","html-keyboard-response","634","437170","0.0-634.0","","","go","","1300","1237","-63"
"null","null","html-keyboard-response","635","437671","0.0-635.0","","<div class=""circle""></div>","feedback_circle","","","",""
"null","null","html-keyboard-response","636","438674","0.0-636.0","","<div style=""font-size: 48px;"">+</div>
            <p style=""font-size: 16px; text-align: center;"">Trial 105 of 300</p>","iti","","","",""
"null","null","html-keyboard-response","637","439176","0.0-637.0","","<div class=""circle ready""></div>","ready","","","",""
"null","null","html-keyboard-response","638","440279","0.0-638.0","","","isi","","","",""
"null","null","html-keyboard-response","639","440781","0.0-639.0","","<div class=""circle set""></div>","set","500","","",""
"1273"," ","html-keyboard-response","640","442055","0.0-640.0","","","go","","1100","1273","173"
"null","null","html-keyboard-response","641","442556","0.0-641.0","","<div class=""circle""></div>","feedback_circle","","","",""
"null","null","html-keyboard-response","642","443559","0.0-642.0","","<div style=""font-size: 48px;"">+</div>
            <p style=""font-size: 16px; text-align: center;"">Trial 106 of 300</p>","iti","","","",""
"null","null","html-keyboard-response","643","444061","0.0-643.0","","<div class=""circle ready""></div>","ready","","","",""
"null","null","html-keyboard-response","644","445563","0.0-644.0","","","isi","","","",""
"null","null","html-keyboard-response","645","446066","0.0-645.0","","<div class=""circle set""></div>","set","500","","",""
"1562"," ","html-keyboard-response","646","447628","0.0-646.0","","","go","","1500","1562","62"
"null","null","html-keyboard-response","647","448129","0.0-647.0","","<div class=""circle""></div>","feedback_circle","","","",""
"null","null","html-keyboard-response","648","449132","0.0-648.0","","<div style=""font-size: 48px;"">+</div>
            <p style=""font-size: 16px; text-align: center;"">Trial 107 of 300</p>","iti","","","",""
"null","null","html-keyboard-response","649","449633","0.0-649.0","","<div class=""circle ready""></div>","ready","","","",""
"null","null","html-keyboard-response","650","451035","0.0-650.0","","","isi","","","",""
"null","null","html-keyboard-response","651","451537","0.0-651.0","","<div class=""circle set""></div>","set","500","","",""
"1411"," ","html-keyboard-response","652","452948","0.0-652.0","","","go","","1400","1411","11"
"null","null","html-keyboard-response","653","453450","0.0-653.0","","<div class=""circle""></div>","feedback_circle","","","",""
"null","null","html-keyboard-response","654","454453","0.0-654.0","","<div style=""font-size: 48px;"">+</div>
            <p style=""font-size: 16px; text-align: center;"">Trial 108 of 300</p>","iti","","","",""
"null","null","html-keyboard-response","655","454955","0.0-655.0","","<div class=""circle ready""></div>","ready","","","",""
"null","null","html-keyboard-response","656","455957","0.0-656.0","","","isi","","","",""
"null","null","html-keyboard-response","657","456460","0.0-657.0","","<div class=""circle set""></div>","set","500","","",""
"1017"," ","html-keyboard-response","658","457478","0.0-658.0","","","go","","1000","1017","17"
"null","null","html-keyboard-response","659","457979","0.0-659.0","","<div class=""circle""></div>","feedback_circle","","","",""
"null","null","html-keyboard-response","660","458982","0.0-660.0","","<div style=""font-size: 48px;"">+</div>
            <p style=""font-size: 16px; text-align: center;"">Trial 109 of 300</p>","iti","","","",""
"null","null","html-keyboard-response","661","459483","0.0-661.0","","<div class=""circle ready""></div>","ready","","","",""
"null","null","html-keyboard-response","662","461186","0.0-662.0","","","isi","","","",""
"null","null","html-keyboard-response","663","461688","0.0-663.0","","<div class=""circle set""></div>","set","500","","",""
"1688"," ","html-keyboard-response","664","463377","0.0-664.0","","","go","","1700","1688","-12"
"null","null","html-keyboard-response","665","463878","0.0-665.0","","<div class=""circle""></div>","feedback_circle","","","",""
"null","null","html-keyboard-response","666","464881","0.0-666.0","","<div style=""font-size: 48px;"">+</div>
            <p style=""font-size: 16px; text-align: center;"">Trial 110 of 300</p>","iti","","","",""
"null","null","html-keyboard-response","667","465381","0.0-667.0","","<div class=""circle ready""></div>","ready","","","",""
"null","null","html-keyboard-response","668","467083","0.0-668.0","","","isi","","","",""
"null","null","html-keyboard-response","669","467585","0.0-669.0","","<div class=""circle set""></div>","set","500","","",""
"1874"," ","html-keyboard-response","670","469459","0.0-670.0","","","go","","1700","1874","174"
"null","null","html-keyboard-response","671","469960","0.0-671.0","","<div class=""circle""></div>","feedback_circle","","","",""
"null","null","html-keyboard-response","672","470963","0.0-672.0","","<div style=""font-size: 48px;"">+</div>
            <p style=""font-size: 16px; text-align: center;"">Trial 111 of 300</p>","iti","","","",""
"null","null","html-keyboard-response","673","471465","0.0-673.0","","<div class=""circle ready""></div>","ready","","","",""
"null","null","html-keyboard-response","674","473167","0.0-674.0","","","isi","","","",""
"null","null","html-keyboard-response","675","473670","0.0-675.0","","<div class=""circle set""></div>","set","500","","",""
"1892"," ","html-keyboard-response","676","475563","0.0-676.0","","","go","","1700","1892","192"
"null","null","html-keyboard-response","677","476064","0.0-677.0","","<div class=""circle""></div>","feedback_circle","","","",""
"null","null","html-keyboard-response","678","477067","0.0-678.0","","<div style=""font-size: 48px;"">+</div>
            <p style=""font-size: 16px; text-align: center;"">Trial 112 of 300</p>","iti","","","",""
"null","null","html-keyboard-response","679","477569","0.0-679.0","","<div class=""circle ready""></div>","ready","","","",""
"null","null","html-keyboard-response","680","478871","0.0-680.0","","","isi","","","",""
"null","null","html-keyboard-response","681","479373","0.0-681.0","","<div class=""circle set""></div>","set","500","","",""
"1646"," ","html-keyboard-response","682","481020","0.0-682.0","","","go","","1300","1646","346"
"null","null","html-keyboard-response","683","481522","0.0-683.0","","<div class=""circle""></div>","feedback_circle","","","",""
"null","null","html-keyboard-response","684","482525","0.0-684.0","","<div style=""font-size: 48px;"">+</div>
            <p style=""font-size: 16px; text-align: center;"">Trial 113 of 300</p>","iti","","","",""
"null","null","html-keyboard-response","685","483026","0.0-685.0","","<div class=""circle ready""></div>","ready","","","",""
"null","null","html-keyboard-response","686","484328","0.0-686.0","","","isi","","","",""
"null","null","html-keyboard-response","687","484831","0.0-687.0","","<div class=""circle set""></div>","set","500","","",""
"1587"," ","html-keyboard-response","688","486419","0.0-688.0","","","go","","1300","1587","287"
"null","null","html-keyboard-response","689","486921","0.0-689.0","","<div class=""circle""></div>","feedback_circle","","","",""
"null","null","html-keyboard-response","690","487924","0.0-690.0","","<div style=""font-size: 48px;"">+</div>
            <p style=""font-size: 16px; text-align: center;"">Trial 114 of 300</p>","iti","","","",""
"null","null","html-keyboard-response","691","488425","0.0-691.0","","<div class=""circle ready""></div>","ready","","","",""
"null","null","html-keyboard-response","692","489827","0.0-692.0","","","isi","","","",""
"null","null","html-keyboard-response","693","490330","0.0-693.0","","<div class=""circle set""></div>","set","500","","",""
"1599"," ","html-keyboard-response","694","491929","0.0-694.0","","","go","","1400","1599","199"
"null","null","html-keyboard-response","695","492430","0.0-695.0","","<div class=""circle""></div>","feedback_circle","","","",""
"null","null","html-keyboard-response","696","493433","0.0-696.0","","<div style=""font-size: 48px;"">+</div>
            <p style=""font-size: 16px; text-align: center;"">Trial 115 of 300</p>","iti","","","",""
"null","null","html-keyboard-response","697","493934","0.0-697.0","","<div class=""circle ready""></div>","ready","","","",""
"null","null","html-keyboard-response","698","495536","0.0-698.0","","","isi","","","",""
"null","null","html-keyboard-response","699","496039","0.0-699.0","","<div class=""circle set""></div>","set","500","","",""
"1727"," ","html-keyboard-response","700","497766","0.0-700.0","","","go","","1600","1727","127"
"null","null","html-keyboard-response","701","498267","0.0-701.0","","<div class=""circle""></div>","feedback_circle","","","",""
"null","null","html-keyboard-response","702","499270","0.0-702.0","","<div style=""font-size: 48px;"">+</div>
            <p style=""font-size: 16px; text-align: center;"">Trial 116 of 300</p>","iti","","","",""
"null","null","html-keyboard-response","703","499772","0.0-703.0","","<div class=""circle ready""></div>","ready","","","",""
"null","null","html-keyboard-response","704","500974","0.0-704.0","","","isi","","","",""
"null","null","html-keyboard-response","705","501476","0.0-705.0","","<div class=""circle set""></div>","set","500","","",""
"1126"," ","html-keyboard-response","706","502604","0.0-706.0","","","go","","1200","1126","-74"
"null","null","html-keyboard-response","707","503105","0.0-707.0","","<div class=""circle""></div>","feedback_circle","","","",""
"null","null","html-keyboard-response","708","504108","0.0-708.0","","<div style=""font-size: 48px;"">+</div>
            <p style=""font-size: 16px; text-align: center;"">Trial 117 of 300</p>","iti","","","",""
"null","null","html-keyboard-response","709","504610","0.0-709.0","","<div class=""circle ready""></div>","ready","","","",""
"null","null","html-keyboard-response","710","506012","0.0-710.0","","","isi","","","",""
"null","null","html-keyboard-response","711","506515","0.0-711.0","","<div class=""circle set""></div>","set","500","","",""
"1390"," ","html-keyboard-response","712","507906","0.0-712.0","","","go","","1400","1390","-10"
"null","null","html-keyboard-response","713","508407","0.0-713.0","","<div class=""circle""></div>","feedback_circle","","","",""
"null","null","html-keyboard-response","714","509410","0.0-714.0","","<div style=""font-size: 48px;"">+</div>
            <p style=""font-size: 16px; text-align: center;"">Trial 118 of 300</p>","iti","","","",""
"null","null","html-keyboard-response","715","509912","0.0-715.0","","<div class=""circle ready""></div>","ready","","","",""
"null","null","html-keyboard-response","716","511515","0.0-716.0","","","isi","","","",""
"null","null","html-keyboard-response","717","512018","0.0-717.0","","<div class=""circle set""></div>","set","500","","",""
"1410"," ","html-keyboard-response","718","513429","0.0-718.0","","","go","","1600","1410","-190"
"null","null","html-keyboard-response","719","513930","0.0-719.0","","<div class=""circle""></div>","feedback_circle","","","",""
"null","null","html-keyboard-response","720","514933","0.0-720.0","","<div style=""font-size: 48px;"">+</div>
            <p style=""font-size: 16px; text-align: center;"">Trial 119 of 300</p>","iti","","","",""
"null","null","html-keyboard-response","721","515435","0.0-721.0","","<div class=""circle ready""></div>","ready","","","",""
"null","null","html-keyboard-response","722","516437","0.0-722.0","","","isi","","","",""
"null","null","html-keyboard-response","723","516939","0.0-723.0","","<div class=""circle set""></div>","set","500","","",""
"885"," ","html-keyboard-response","724","517825","0.0-724.0","","","go","","1000","885","-115"
"null","null","html-keyboard-response","725","518326","0.0-725.0","","<div class=""circle""></div>","feedback_circle","","","",""
"null","null","html-keyboard-response","726","519330","0.0-726.0","","<div style=""font-size: 48px;"">+</div>
            <p style=""font-size: 16px; text-align: center;"">Trial 120 of 300</p>","iti","","","",""
"null","null","html-keyboard-response","727","519831","0.0-727.0","","<div class=""circle ready""></div>","ready","","","",""
"null","null","html-keyboard-response","728","521233","0.0-728.0","","","isi","","","",""
"null","null","html-keyboard-response","729","521735","0.0-729.0","","<div class=""circle set""></div>","set","500","","",""
"1519"," ","html-keyboard-response","730","523256","0.0-730.0","","","go","","1400","1519","119"
"null","null","html-keyboard-response","731","523757","0.0-731.0","","<div class=""circle""></div>","feedback_circle","","","",""
"null","null","html-keyboard-response","732","524760","0.0-732.0","","<div style=""font-size: 48px;"">+</div>
            <p style=""font-size: 16px; text-align: center;"">Trial 121 of 300</p>","iti","","","",""
"null","null","html-keyboard-response","733","525262","0.0-733.0","","<div class=""circle ready""></div>","ready","","","",""
"null","null","html-keyboard-response","734","526464","0.0-734.0","","","isi","","","",""
"null","null","html-keyboard-response","735","526966","0.0-735.0","","<div class=""circle set""></div>","set","500","","",""
"1248"," ","html-keyboard-response","736","528215","0.0-736.0","","","go","","1200","1248","48"
"null","null","html-keyboard-response","737","528716","0.0-737.0","","<div class=""circle""></div>","feedback_circle","","","",""
"null","null","html-keyboard-response","738","529719","0.0-738.0","","<div style=""font-size: 48px;"">+</div>
            <p style=""font-size: 16px; text-align: center;"">Trial 122 of 300</p>","iti","","","",""
"null","null","html-keyboard-response","739","530222","0.0-739.0","","<div class=""circle ready""></div>","ready","","","",""
"null","null","html-keyboard-response","740","531524","0.0-740.0","","","isi","","","",""
"null","null","html-keyboard-response","741","532027","0.0-741.0","","<div class=""circle set""></div>","set","500","","",""
"1422"," ","html-keyboard-response","742","533450","0.0-742.0","","","go","","1300","1422","122"
"null","null","html-keyboard-response","743","533951","0.0-743.0","","<div class=""circle""></div>","feedback_circle","","","",""
"null","null","html-keyboard-response","744","534954","0.0-744.0","","<div style=""font-size: 48px;"">+</div>
            <p style=""font-size: 16px; text-align: center;"">Trial 123 of 300</p>","iti","","","",""
"null","null","html-keyboard-response","745","535456","0.0-745.0","","<div class=""circle ready""></div>","ready","","","",""
"null","null","html-keyboard-response","746","536458","0.0-746.0","","","isi","","","",""
"null","null","html-keyboard-response","747","536961","0.0-747.0","","<div class=""circle set""></div>","set","500","","",""
"1365"," ","html-keyboard-response","748","538327","0.0-748.0","","","go","","1000","1365","365"
"null","null","html-keyboard-response","749","538828","0.0-749.0","","<div class=""circle""></div>","feedback_circle","","","",""
"null","null","html-keyboard-response","750","539831","0.0-750.0","","<div style=""font-size: 48px;"">+</div>
            <p style=""font-size: 16px; text-align: center;"">Trial 124 of 300</p>","iti","","","",""
"null","null","html-keyboard-response","751","540332","0.0-751.0","","<div class=""circle ready""></div>","ready","","","",""
"null","null","html-keyboard-response","752","541835","0.0-752.0","","","isi","","","",""
"null","null","html-keyboard-response","753","542337","0.0-753.0","","<div class=""circle set""></div>","set","500","","",""
"1498"," ","html-keyboard-response","754","543835","0.0-754.0","","","go","","1500","1498","-2"
"null","null","html-keyboard-response","755","544337","0.0-755.0","","<div class=""circle""></div>","feedback_circle","","","",""
"null","null","html-keyboard-response","756","545340","0.0-756.0","","<div style=""font-size: 48px;"">+</div>
            <p style=""font-size: 16px; text-align: center;"">Trial 125 of 300</p>","iti","","","",""
"null","null","html-keyboard-response","757","545841","0.0-757.0","","<div class=""circle ready""></div>","ready","","","",""
"null","null","html-keyboard-response","758","547144","0.0-758.0","","","isi","","","",""
"null","null","html-keyboard-response","759","547647","0.0-759.0","","<div class=""circle set""></div>","set","500","","",""
"1476"," ","html-keyboard-response","760","549123","0.0-760.0","","","go","","1300","1476","176"
