"rt","response","trial_type","trial_index","time_elapsed","internal_node_id","subject_ID","stimulus","phase","set_duration","target_interval","reproduced_interval","reproduction_error"
"1084","{""subject_id"":""adi""}","survey-text","0","1097","0.0-0.0","","","","","","",""
"668"," ","html-keyboard-response","1","1769","0.0-1.0","","
      <p>Ready-Set-Go Task:</p>
      <ul style=""text-align:left; max-width:600px; margin:auto;"">
        <li>First, a <strong>red circle (""Ready"")</strong> appears</li>
        <li>Then, an <strong>orange circle (""Set"")</strong> appears after a delay</li>
        <li>You must <strong>press SPACE</strong> after an equal delay</li>
        <li>Then, a <strong>green circle (""Go"")</strong> appears</li>
        <li>You'll get feedback for the first 5 trials.</li>
      </ul>
      <p>Press any key to begin.</p>
    ","","","","",""
"null","null","html-keyboard-response","2","2271","0.0-2.0","","<div class=""circle ready""></div>","ready","","","",""
"null","null","html-keyboard-response","3","2944","0.0-3.0","","","isi","","","",""
"null","null","html-keyboard-response","4","3448","0.0-4.0","","<div class=""circle set""></div>","set","500","","",""
"502"," ","html-keyboard-response","5","3952","0.0-5.0","","","go","","670","502","-168"
"null","null","html-keyboard-response","6","4455","0.0-6.0","","<div class=""circle go""></div>","feedback_circle","","","",""
"null","null","html-keyboard-response","7","4960","0.0-7.0","","
      <div style=""text-align:center;"">
        
        <p style=""font-size: 16px; text-align: center;"">Trial 2 of 900</p>
        <p><strong>Error:</strong> -168 ms</p>

        <div style=""position: relative; width: 80%; height: 40px; margin: 40px auto;"">
          <div style=""height: 8px; background: linear-gradient(to right, #3498db, #ccc, #e74c3c); border-radius: 4px;""></div>
          <div style=""position: absolute; left: 33.2%; top: -6px; transform: translateX(-50%);"">
            <div style=""width: 14px; height: 14px; background: black; border-radius: 50%; border: 2px solid white;""></div>
          </div>
          <div style=""position: absolute; left: 0%; top: 20px; font-size: 12px;"">–500 ms</div>
          <div style=""position: absolute; left: 50%; top: 20px; font-size: 12px; transform: translateX(-50%);"">0</div>
          <div style=""position: absolute; right: 0%; top: 20px; font-size: 12px;"">+500 ms</div>
        </div>

        <p>Press any key to continue.</p>
      </div>
    ","feedback_text","","","",""
"null","null","html-keyboard-response","8","5963","0.0-8.0","","<p style=""font-size: 48px;"">+</p>","iti","","","",""
"null","null","html-keyboard-response","9","6467","0.0-9.0","","<div class=""circle ready""></div>","ready","","","",""
"null","null","html-keyboard-response","10","7199","0.0-10.0","","","isi","","","",""
"null","null","html-keyboard-response","11","7703","0.0-11.0","","<div class=""circle set""></div>","set","500","","",""
"703"," ","html-keyboard-response","12","8408","0.0-12.0","","","go","","730","703","-27"
"null","null","html-keyboard-response","13","8909","0.0-13.0","","<div class=""circle go""></div>","feedback_circle","","","",""
"null","null","html-keyboard-response","14","9413","0.0-14.0","","
      <div style=""text-align:center;"">
        
        <p style=""font-size: 16px; text-align: center;"">Trial 3 of 900</p>
        <p><strong>Error:</strong> -27 ms</p>

        <div style=""position: relative; width: 80%; height: 40px; margin: 40px auto;"">
          <div style=""height: 8px; background: linear-gradient(to right, #3498db, #ccc, #e74c3c); border-radius: 4px;""></div>
          <div style=""position: absolute; left: 47.3%; top: -6px; transform: translateX(-50%);"">
            <div style=""width: 14px; height: 14px; background: black; border-radius: 50%; border: 2px solid white;""></div>
          </div>
          <div style=""position: absolute; left: 0%; top: 20px; font-size: 12px;"">–500 ms</div>
          <div style=""position: absolute; left: 50%; top: 20px; font-size: 12px; transform: translateX(-50%);"">0</div>
          <div style=""position: absolute; right: 0%; top: 20px; font-size: 12px;"">+500 ms</div>
        </div>

        <p>Press any key to continue.</p>
      </div>
    ","feedback_text","","","",""
"null","null","html-keyboard-response","15","10416","0.0-15.0","","<p style=""font-size: 48px;"">+</p>","iti","","","",""
"null","null","html-keyboard-response","16","10919","0.0-16.0","","<div class=""circle ready""></div>","ready","","","",""
"null","null","html-keyboard-response","17","11473","0.0-17.0","","","isi","","","",""
"null","null","html-keyboard-response","18","11976","0.0-18.0","","<div class=""circle set""></div>","set","500","","",""
"660"," ","html-keyboard-response","19","12637","0.0-19.0","","","go","","550","660","110"
"null","null","html-keyboard-response","20","13140","0.0-20.0","","<div class=""circle go""></div>","feedback_circle","","","",""
"null","null","html-keyboard-response","21","13643","0.0-21.0","","
      <div style=""text-align:center;"">
        
        <p style=""font-size: 16px; text-align: center;"">Trial 4 of 900</p>
        <p><strong>Error:</strong> +110 ms</p>

        <div style=""position: relative; width: 80%; height: 40px; margin: 40px auto;"">
          <div style=""height: 8px; background: linear-gradient(to right, #3498db, #ccc, #e74c3c); border-radius: 4px;""></div>
          <div style=""position: absolute; left: 61%; top: -6px; transform: translateX(-50%);"">
            <div style=""width: 14px; height: 14px; background: black; border-radius: 50%; border: 2px solid white;""></div>
          </div>
          <div style=""position: absolute; left: 0%; top: 20px; font-size: 12px;"">–500 ms</div>
          <div style=""position: absolute; left: 50%; top: 20px; font-size: 12px; transform: translateX(-50%);"">0</div>
          <div style=""position: absolute; right: 0%; top: 20px; font-size: 12px;"">+500 ms</div>
        </div>

        <p>Press any key to continue.</p>
      </div>
    ","feedback_text","","","",""
"null","null","html-keyboard-response","22","14646","0.0-22.0","","<p style=""font-size: 48px;"">+</p>","iti","","","",""
"null","null","html-keyboard-response","23","15149","0.0-23.0","","<div class=""circle ready""></div>","ready","","","",""
"null","null","html-keyboard-response","24","16002","0.0-24.0","","","isi","","","",""
"null","null","html-keyboard-response","25","16505","0.0-25.0","","<div class=""circle set""></div>","set","500","","",""
"883"," ","html-keyboard-response","26","17389","0.0-26.0","","","go","","850","883","33"
"null","null","html-keyboard-response","27","17891","0.0-27.0","","<div class=""circle go""></div>","feedback_circle","","","",""
"null","null","html-keyboard-response","28","18394","0.0-28.0","","
      <div style=""text-align:center;"">
        
        <p style=""font-size: 16px; text-align: center;"">Trial 5 of 900</p>
        <p><strong>Error:</strong> +33 ms</p>

        <div style=""position: relative; width: 80%; height: 40px; margin: 40px auto;"">
          <div style=""height: 8px; background: linear-gradient(to right, #3498db, #ccc, #e74c3c); border-radius: 4px;""></div>
          <div style=""position: absolute; left: 53.300000000000004%; top: -6px; transform: translateX(-50%);"">
            <div style=""width: 14px; height: 14px; background: black; border-radius: 50%; border: 2px solid white;""></div>
          </div>
          <div style=""position: absolute; left: 0%; top: 20px; font-size: 12px;"">–500 ms</div>
          <div style=""position: absolute; left: 50%; top: 20px; font-size: 12px; transform: translateX(-50%);"">0</div>
          <div style=""position: absolute; right: 0%; top: 20px; font-size: 12px;"">+500 ms</div>
        </div>

        <p>Press any key to continue.</p>
      </div>
    ","feedback_text","","","",""
"null","null","html-keyboard-response","29","19398","0.0-29.0","","<p style=""font-size: 48px;"">+</p>","iti","","","",""
"null","null","html-keyboard-response","30","19901","0.0-30.0","","<div class=""circle ready""></div>","ready","","","",""
"null","null","html-keyboard-response","31","20454","0.0-31.0","","","isi","","","",""
"null","null","html-keyboard-response","32","20957","0.0-32.0","","<div class=""circle set""></div>","set","500","","",""
"510"," ","html-keyboard-response","33","21469","0.0-33.0","","","go","","550","510","-40"
"null","null","html-keyboard-response","34","21970","0.0-34.0","","<div class=""circle go""></div>","feedback_circle","","","",""
"null","null","html-keyboard-response","35","22474","0.0-35.0","","
      <div style=""text-align:center;"">
        
        <p style=""font-size: 16px; text-align: center;"">Trial 6 of 900</p>
        <p><strong>Error:</strong> -40 ms</p>

        <div style=""position: relative; width: 80%; height: 40px; margin: 40px auto;"">
          <div style=""height: 8px; background: linear-gradient(to right, #3498db, #ccc, #e74c3c); border-radius: 4px;""></div>
          <div style=""position: absolute; left: 46%; top: -6px; transform: translateX(-50%);"">
            <div style=""width: 14px; height: 14px; background: black; border-radius: 50%; border: 2px solid white;""></div>
          </div>
          <div style=""position: absolute; left: 0%; top: 20px; font-size: 12px;"">–500 ms</div>
          <div style=""position: absolute; left: 50%; top: 20px; font-size: 12px; transform: translateX(-50%);"">0</div>
          <div style=""position: absolute; right: 0%; top: 20px; font-size: 12px;"">+500 ms</div>
        </div>

        <p>Press any key to continue.</p>
      </div>
    ","feedback_text","","","",""
"null","null","html-keyboard-response","36","23477","0.0-36.0","","<p style=""font-size: 48px;"">+</p>","iti","","","",""
"null","null","html-keyboard-response","37","23979","0.0-37.0","","<div class=""circle ready""></div>","ready","","","",""
"null","null","html-keyboard-response","38","24472","0.0-38.0","","","isi","","","",""
"null","null","html-keyboard-response","39","24975","0.0-39.0","","<div class=""circle set""></div>","set","500","","",""
"484"," ","html-keyboard-response","40","25461","0.0-40.0","","","go","","490","484","-6"
"null","null","html-keyboard-response","41","25963","0.0-41.0","","<div class=""circle go""></div>","feedback_circle","","","",""
"null","null","html-keyboard-response","42","26467","0.0-42.0","","
      <div style=""text-align:center;"">
        
        <p style=""font-size: 16px; text-align: center;"">Trial 7 of 900</p>
        <p><strong>Error:</strong> -6 ms</p>

        <div style=""position: relative; width: 80%; height: 40px; margin: 40px auto;"">
          <div style=""height: 8px; background: linear-gradient(to right, #3498db, #ccc, #e74c3c); border-radius: 4px;""></div>
          <div style=""position: absolute; left: 49.4%; top: -6px; transform: translateX(-50%);"">
            <div style=""width: 14px; height: 14px; background: black; border-radius: 50%; border: 2px solid white;""></div>
          </div>
          <div style=""position: absolute; left: 0%; top: 20px; font-size: 12px;"">–500 ms</div>
          <div style=""position: absolute; left: 50%; top: 20px; font-size: 12px; transform: translateX(-50%);"">0</div>
          <div style=""position: absolute; right: 0%; top: 20px; font-size: 12px;"">+500 ms</div>
        </div>

        <p>Press any key to continue.</p>
      </div>
    ","feedback_text","","","",""
"null","null","html-keyboard-response","43","27470","0.0-43.0","","<p style=""font-size: 48px;"">+</p>","iti","","","",""
"null","null","html-keyboard-response","44","27973","0.0-44.0","","<div class=""circle ready""></div>","ready","","","",""
"null","null","html-keyboard-response","45","28706","0.0-45.0","","","isi","","","",""
"null","null","html-keyboard-response","46","29209","0.0-46.0","","<div class=""circle set""></div>","set","500","","",""
"807"," ","html-keyboard-response","47","30018","0.0-47.0","","","go","","730","807","77"
"null","null","html-keyboard-response","48","30519","0.0-48.0","","<div class=""circle go""></div>","feedback_circle","","","",""
"null","null","html-keyboard-response","49","31023","0.0-49.0","","
      <div style=""text-align:center;"">
        
        <p style=""font-size: 16px; text-align: center;"">Trial 8 of 900</p>
        <p><strong>Error:</strong> +77 ms</p>

        <div style=""position: relative; width: 80%; height: 40px; margin: 40px auto;"">
          <div style=""height: 8px; background: linear-gradient(to right, #3498db, #ccc, #e74c3c); border-radius: 4px;""></div>
          <div style=""position: absolute; left: 57.699999999999996%; top: -6px; transform: translateX(-50%);"">
            <div style=""width: 14px; height: 14px; background: black; border-radius: 50%; border: 2px solid white;""></div>
          </div>
          <div style=""position: absolute; left: 0%; top: 20px; font-size: 12px;"">–500 ms</div>
          <div style=""position: absolute; left: 50%; top: 20px; font-size: 12px; transform: translateX(-50%);"">0</div>
          <div style=""position: absolute; right: 0%; top: 20px; font-size: 12px;"">+500 ms</div>
        </div>

        <p>Press any key to continue.</p>
      </div>
    ","feedback_text","","","",""
"null","null","html-keyboard-response","50","32026","0.0-50.0","","<p style=""font-size: 48px;"">+</p>","iti","","","",""
"null","null","html-keyboard-response","51","32530","0.0-51.0","","<div class=""circle ready""></div>","ready","","","",""
"null","null","html-keyboard-response","52","33262","0.0-52.0","","","isi","","","",""
"null","null","html-keyboard-response","53","33766","0.0-53.0","","<div class=""circle set""></div>","set","500","","",""
"749"," ","html-keyboard-response","54","34517","0.0-54.0","","","go","","730","749","19"
"null","null","html-keyboard-response","55","35019","0.0-55.0","","<div class=""circle go""></div>","feedback_circle","","","",""
"null","null","html-keyboard-response","56","35522","0.0-56.0","","
      <div style=""text-align:center;"">
        
        <p style=""font-size: 16px; text-align: center;"">Trial 9 of 900</p>
        <p><strong>Error:</strong> +19 ms</p>

        <div style=""position: relative; width: 80%; height: 40px; margin: 40px auto;"">
          <div style=""height: 8px; background: linear-gradient(to right, #3498db, #ccc, #e74c3c); border-radius: 4px;""></div>
          <div style=""position: absolute; left: 51.9%; top: -6px; transform: translateX(-50%);"">
            <div style=""width: 14px; height: 14px; background: black; border-radius: 50%; border: 2px solid white;""></div>
          </div>
          <div style=""position: absolute; left: 0%; top: 20px; font-size: 12px;"">–500 ms</div>
          <div style=""position: absolute; left: 50%; top: 20px; font-size: 12px; transform: translateX(-50%);"">0</div>
          <div style=""position: absolute; right: 0%; top: 20px; font-size: 12px;"">+500 ms</div>
        </div>

        <p>Press any key to continue.</p>
      </div>
    ","feedback_text","","","",""
"null","null","html-keyboard-response","57","36525","0.0-57.0","","<p style=""font-size: 48px;"">+</p>","iti","","","",""
"null","null","html-keyboard-response","58","37027","0.0-58.0","","<div class=""circle ready""></div>","ready","","","",""
"null","null","html-keyboard-response","59","37521","0.0-59.0","","","isi","","","",""
"null","null","html-keyboard-response","60","38024","0.0-60.0","","<div class=""circle set""></div>","set","500","","",""
"471"," ","html-keyboard-response","61","38496","0.0-61.0","","","go","","490","471","-19"
"null","null","html-keyboard-response","62","38998","0.0-62.0","","<div class=""circle go""></div>","feedback_circle","","","",""
"null","null","html-keyboard-response","63","39501","0.0-63.0","","
      <div style=""text-align:center;"">
        
        <p style=""font-size: 16px; text-align: center;"">Trial 10 of 900</p>
        <p><strong>Error:</strong> -19 ms</p>

        <div style=""position: relative; width: 80%; height: 40px; margin: 40px auto;"">
          <div style=""height: 8px; background: linear-gradient(to right, #3498db, #ccc, #e74c3c); border-radius: 4px;""></div>
          <div style=""position: absolute; left: 48.1%; top: -6px; transform: translateX(-50%);"">
            <div style=""width: 14px; height: 14px; background: black; border-radius: 50%; border: 2px solid white;""></div>
          </div>
          <div style=""position: absolute; left: 0%; top: 20px; font-size: 12px;"">–500 ms</div>
          <div style=""position: absolute; left: 50%; top: 20px; font-size: 12px; transform: translateX(-50%);"">0</div>
          <div style=""position: absolute; right: 0%; top: 20px; font-size: 12px;"">+500 ms</div>
        </div>

        <p>Press any key to continue.</p>
      </div>
    ","feedback_text","","","",""
"null","null","html-keyboard-response","64","40504","0.0-64.0","","<p style=""font-size: 48px;"">+</p>","iti","","","",""
"null","null","html-keyboard-response","65","41008","0.0-65.0","","<div class=""circle ready""></div>","ready","","","",""
"null","null","html-keyboard-response","66","41621","0.0-66.0","","","isi","","","",""
"null","null","html-keyboard-response","67","42124","0.0-67.0","","<div class=""circle set""></div>","set","500","","",""
"567"," ","html-keyboard-response","68","42692","0.0-68.0","","","go","","610","567","-43"
"null","null","html-keyboard-response","69","43194","0.0-69.0","","<div class=""circle go""></div>","feedback_circle","","","",""
"null","null","html-keyboard-response","70","43698","0.0-70.0","","
      <div style=""text-align:center;"">
        
        <p style=""font-size: 16px; text-align: center;"">Trial 11 of 900</p>
        <p><strong>Error:</strong> -43 ms</p>

        <div style=""position: relative; width: 80%; height: 40px; margin: 40px auto;"">
          <div style=""height: 8px; background: linear-gradient(to right, #3498db, #ccc, #e74c3c); border-radius: 4px;""></div>
          <div style=""position: absolute; left: 45.7%; top: -6px; transform: translateX(-50%);"">
            <div style=""width: 14px; height: 14px; background: black; border-radius: 50%; border: 2px solid white;""></div>
          </div>
          <div style=""position: absolute; left: 0%; top: 20px; font-size: 12px;"">–500 ms</div>
          <div style=""position: absolute; left: 50%; top: 20px; font-size: 12px; transform: translateX(-50%);"">0</div>
          <div style=""position: absolute; right: 0%; top: 20px; font-size: 12px;"">+500 ms</div>
        </div>

        <p>Press any key to continue.</p>
      </div>
    ","feedback_text","","","",""
"null","null","html-keyboard-response","71","44701","0.0-71.0","","<p style=""font-size: 48px;"">+</p>","iti","","","",""
"null","null","html-keyboard-response","72","45203","0.0-72.0","","<div class=""circle ready""></div>","ready","","","",""
"null","null","html-keyboard-response","73","45936","0.0-73.0","","","isi","","","",""
"null","null","html-keyboard-response","74","46438","0.0-74.0","","<div class=""circle set""></div>","set","500","","",""
"640"," ","html-keyboard-response","75","47079","0.0-75.0","","","go","","730","640","-90"
"null","null","html-keyboard-response","76","47581","0.0-76.0","","<div class=""circle go""></div>","feedback_circle","","","",""
"null","null","html-keyboard-response","77","48084","0.0-77.0","","
      <div style=""text-align:center;"">
        
        <p style=""font-size: 16px; text-align: center;"">Trial 12 of 900</p>
        <p><strong>Error:</strong> -90 ms</p>

        <div style=""position: relative; width: 80%; height: 40px; margin: 40px auto;"">
          <div style=""height: 8px; background: linear-gradient(to right, #3498db, #ccc, #e74c3c); border-radius: 4px;""></div>
          <div style=""position: absolute; left: 41%; top: -6px; transform: translateX(-50%);"">
            <div style=""width: 14px; height: 14px; background: black; border-radius: 50%; border: 2px solid white;""></div>
          </div>
          <div style=""position: absolute; left: 0%; top: 20px; font-size: 12px;"">–500 ms</div>
          <div style=""position: absolute; left: 50%; top: 20px; font-size: 12px; transform: translateX(-50%);"">0</div>
          <div style=""position: absolute; right: 0%; top: 20px; font-size: 12px;"">+500 ms</div>
        </div>

        <p>Press any key to continue.</p>
      </div>
    ","feedback_text","","","",""
"null","null","html-keyboard-response","78","49086","0.0-78.0","","<p style=""font-size: 48px;"">+</p>","iti","","","",""
"null","null","html-keyboard-response","79","49589","0.0-79.0","","<div class=""circle ready""></div>","ready","","","",""
"null","null","html-keyboard-response","80","50202","0.0-80.0","","","isi","","","",""
"null","null","html-keyboard-response","81","50705","0.0-81.0","","<div class=""circle set""></div>","set","500","","",""
"770"," ","html-keyboard-response","82","51476","0.0-82.0","","","go","","610","770","160"
"null","null","html-keyboard-response","83","51978","0.0-83.0","","<div class=""circle go""></div>","feedback_circle","","","",""
"null","null","html-keyboard-response","84","52481","0.0-84.0","","
      <div style=""text-align:center;"">
        
        <p style=""font-size: 16px; text-align: center;"">Trial 13 of 900</p>
        <p><strong>Error:</strong> +160 ms</p>

        <div style=""position: relative; width: 80%; height: 40px; margin: 40px auto;"">
          <div style=""height: 8px; background: linear-gradient(to right, #3498db, #ccc, #e74c3c); border-radius: 4px;""></div>
          <div style=""position: absolute; left: 66%; top: -6px; transform: translateX(-50%);"">
            <div style=""width: 14px; height: 14px; background: black; border-radius: 50%; border: 2px solid white;""></div>
          </div>
          <div style=""position: absolute; left: 0%; top: 20px; font-size: 12px;"">–500 ms</div>
          <div style=""position: absolute; left: 50%; top: 20px; font-size: 12px; transform: translateX(-50%);"">0</div>
          <div style=""position: absolute; right: 0%; top: 20px; font-size: 12px;"">+500 ms</div>
        </div>

        <p>Press any key to continue.</p>
      </div>
    ","feedback_text","","","",""
"null","null","html-keyboard-response","85","53483","0.0-85.0","","<p style=""font-size: 48px;"">+</p>","iti","","","",""
"null","null","html-keyboard-response","86","53986","0.0-86.0","","<div class=""circle ready""></div>","ready","","","",""
"null","null","html-keyboard-response","87","54719","0.0-87.0","","","isi","","","",""
"null","null","html-keyboard-response","88","55221","0.0-88.0","","<div class=""circle set""></div>","set","500","","",""
"801"," ","html-keyboard-response","89","56024","0.0-89.0","","","go","","730","801","71"
"null","null","html-keyboard-response","90","56526","0.0-90.0","","<div class=""circle go""></div>","feedback_circle","","","",""
"null","null","html-keyboard-response","91","57028","0.0-91.0","","
      <div style=""text-align:center;"">
        
        <p style=""font-size: 16px; text-align: center;"">Trial 14 of 900</p>
        <p><strong>Error:</strong> +71 ms</p>

        <div style=""position: relative; width: 80%; height: 40px; margin: 40px auto;"">
          <div style=""height: 8px; background: linear-gradient(to right, #3498db, #ccc, #e74c3c); border-radius: 4px;""></div>
          <div style=""position: absolute; left: 57.099999999999994%; top: -6px; transform: translateX(-50%);"">
            <div style=""width: 14px; height: 14px; background: black; border-radius: 50%; border: 2px solid white;""></div>
          </div>
          <div style=""position: absolute; left: 0%; top: 20px; font-size: 12px;"">–500 ms</div>
          <div style=""position: absolute; left: 50%; top: 20px; font-size: 12px; transform: translateX(-50%);"">0</div>
          <div style=""position: absolute; right: 0%; top: 20px; font-size: 12px;"">+500 ms</div>
        </div>

        <p>Press any key to continue.</p>
      </div>
    ","feedback_text","","","",""
"null","null","html-keyboard-response","92","58031","0.0-92.0","","<p style=""font-size: 48px;"">+</p>","iti","","","",""
"null","null","html-keyboard-response","93","58534","0.0-93.0","","<div class=""circle ready""></div>","ready","","","",""
"null","null","html-keyboard-response","94","59146","0.0-94.0","","","isi","","","",""
"null","null","html-keyboard-response","95","59649","0.0-95.0","","<div class=""circle set""></div>","set","500","","",""
"836"," ","html-keyboard-response","96","60486","0.0-96.0","","","go","","610","836","226"
"null","null","html-keyboard-response","97","60988","0.0-97.0","","<div class=""circle go""></div>","feedback_circle","","","",""
"null","null","html-keyboard-response","98","61491","0.0-98.0","","
      <div style=""text-align:center;"">
        
        <p style=""font-size: 16px; text-align: center;"">Trial 15 of 900</p>
        <p><strong>Error:</strong> +226 ms</p>

        <div style=""position: relative; width: 80%; height: 40px; margin: 40px auto;"">
          <div style=""height: 8px; background: linear-gradient(to right, #3498db, #ccc, #e74c3c); border-radius: 4px;""></div>
          <div style=""position: absolute; left: 72.6%; top: -6px; transform: translateX(-50%);"">
            <div style=""width: 14px; height: 14px; background: black; border-radius: 50%; border: 2px solid white;""></div>
          </div>
          <div style=""position: absolute; left: 0%; top: 20px; font-size: 12px;"">–500 ms</div>
          <div style=""position: absolute; left: 50%; top: 20px; font-size: 12px; transform: translateX(-50%);"">0</div>
          <div style=""position: absolute; right: 0%; top: 20px; font-size: 12px;"">+500 ms</div>
        </div>

        <p>Press any key to continue.</p>
      </div>
    ","feedback_text","","","",""
"null","null","html-keyboard-response","99","62494","0.0-99.0","","<p style=""font-size: 48px;"">+</p>","iti","","","",""
"null","null","html-keyboard-response","100","62997","0.0-100.0","","<div class=""circle ready""></div>","ready","","","",""
"null","null","html-keyboard-response","101","63850","0.0-101.0","","","isi","","","",""
"null","null","html-keyboard-response","102","64353","0.0-102.0","","<div class=""circle set""></div>","set","500","","",""
"765"," ","html-keyboard-response","103","65120","0.0-103.0","","","go","","850","765","-85"
"null","null","html-keyboard-response","104","65622","0.0-104.0","","<div class=""circle go""></div>","feedback_circle","","","",""
"null","null","html-keyboard-response","105","66125","0.0-105.0","","
      <div style=""text-align:center;"">
        
        <p style=""font-size: 16px; text-align: center;"">Trial 16 of 900</p>
        <p><strong>Error:</strong> -85 ms</p>

        <div style=""position: relative; width: 80%; height: 40px; margin: 40px auto;"">
          <div style=""height: 8px; background: linear-gradient(to right, #3498db, #ccc, #e74c3c); border-radius: 4px;""></div>
          <div style=""position: absolute; left: 41.5%; top: -6px; transform: translateX(-50%);"">
            <div style=""width: 14px; height: 14px; background: black; border-radius: 50%; border: 2px solid white;""></div>
          </div>
          <div style=""position: absolute; left: 0%; top: 20px; font-size: 12px;"">–500 ms</div>
          <div style=""position: absolute; left: 50%; top: 20px; font-size: 12px; transform: translateX(-50%);"">0</div>
          <div style=""position: absolute; right: 0%; top: 20px; font-size: 12px;"">+500 ms</div>
        </div>

        <p>Press any key to continue.</p>
      </div>
    ","feedback_text","","","",""
"null","null","html-keyboard-response","106","67129","0.0-106.0","","<p style=""font-size: 48px;"">+</p>","iti","","","",""
"null","null","html-keyboard-response","107","67631","0.0-107.0","","<div class=""circle ready""></div>","ready","","","",""
"null","null","html-keyboard-response","108","68243","0.0-108.0","","","isi","","","",""
"null","null","html-keyboard-response","109","68745","0.0-109.0","","<div class=""circle set""></div>","set","500","","",""
"614"," ","html-keyboard-response","110","69361","0.0-110.0","","","go","","610","614","4"
"null","null","html-keyboard-response","111","69862","0.0-111.0","","<div class=""circle go""></div>","feedback_circle","","","",""
"null","null","html-keyboard-response","112","70366","0.0-112.0","","
      <div style=""text-align:center;"">
        
        <p style=""font-size: 16px; text-align: center;"">Trial 17 of 900</p>
        <p><strong>Error:</strong> +4 ms</p>

        <div style=""position: relative; width: 80%; height: 40px; margin: 40px auto;"">
          <div style=""height: 8px; background: linear-gradient(to right, #3498db, #ccc, #e74c3c); border-radius: 4px;""></div>
          <div style=""position: absolute; left: 50.4%; top: -6px; transform: translateX(-50%);"">
            <div style=""width: 14px; height: 14px; background: black; border-radius: 50%; border: 2px solid white;""></div>
          </div>
          <div style=""position: absolute; left: 0%; top: 20px; font-size: 12px;"">–500 ms</div>
          <div style=""position: absolute; left: 50%; top: 20px; font-size: 12px; transform: translateX(-50%);"">0</div>
          <div style=""position: absolute; right: 0%; top: 20px; font-size: 12px;"">+500 ms</div>
        </div>

        <p>Press any key to continue.</p>
      </div>
    ","feedback_text","","","",""
"null","null","html-keyboard-response","113","71370","0.0-113.0","","<p style=""font-size: 48px;"">+</p>","iti","","","",""
"null","null","html-keyboard-response","114","71872","0.0-114.0","","<div class=""circle ready""></div>","ready","","","",""
"null","null","html-keyboard-response","115","72665","0.0-115.0","","","isi","","","",""
"null","null","html-keyboard-response","116","73168","0.0-116.0","","<div class=""circle set""></div>","set","500","","",""
"700"," ","html-keyboard-response","117","73869","0.0-117.0","","","go","","790","700","-90"
"null","null","html-keyboard-response","118","74371","0.0-118.0","","<div class=""circle go""></div>","feedback_circle","","","",""
"null","null","html-keyboard-response","119","74874","0.0-119.0","","
      <div style=""text-align:center;"">
        
        <p style=""font-size: 16px; text-align: center;"">Trial 18 of 900</p>
        <p><strong>Error:</strong> -90 ms</p>

        <div style=""position: relative; width: 80%; height: 40px; margin: 40px auto;"">
          <div style=""height: 8px; background: linear-gradient(to right, #3498db, #ccc, #e74c3c); border-radius: 4px;""></div>
          <div style=""position: absolute; left: 41%; top: -6px; transform: translateX(-50%);"">
            <div style=""width: 14px; height: 14px; background: black; border-radius: 50%; border: 2px solid white;""></div>
          </div>
          <div style=""position: absolute; left: 0%; top: 20px; font-size: 12px;"">–500 ms</div>
          <div style=""position: absolute; left: 50%; top: 20px; font-size: 12px; transform: translateX(-50%);"">0</div>
          <div style=""position: absolute; right: 0%; top: 20px; font-size: 12px;"">+500 ms</div>
        </div>

        <p>Press any key to continue.</p>
      </div>
    ","feedback_text","","","",""
"null","null","html-keyboard-response","120","75876","0.0-120.0","","<p style=""font-size: 48px;"">+</p>","iti","","","",""
"null","null","html-keyboard-response","121","76379","0.0-121.0","","<div class=""circle ready""></div>","ready","","","",""
"null","null","html-keyboard-response","122","77111","0.0-122.0","","","isi","","","",""
"null","null","html-keyboard-response","123","77615","0.0-123.0","","<div class=""circle set""></div>","set","500","","",""
"659"," ","html-keyboard-response","124","78275","0.0-124.0","","","go","","730","659","-71"
"null","null","html-keyboard-response","125","78776","0.0-125.0","","<div class=""circle go""></div>","feedback_circle","","","",""
"null","null","html-keyboard-response","126","79280","0.0-126.0","","
      <div style=""text-align:center;"">
        
        <p style=""font-size: 16px; text-align: center;"">Trial 19 of 900</p>
        <p><strong>Error:</strong> -71 ms</p>

        <div style=""position: relative; width: 80%; height: 40px; margin: 40px auto;"">
          <div style=""height: 8px; background: linear-gradient(to right, #3498db, #ccc, #e74c3c); border-radius: 4px;""></div>
          <div style=""position: absolute; left: 42.9%; top: -6px; transform: translateX(-50%);"">
            <div style=""width: 14px; height: 14px; background: black; border-radius: 50%; border: 2px solid white;""></div>
          </div>
          <div style=""position: absolute; left: 0%; top: 20px; font-size: 12px;"">–500 ms</div>
          <div style=""position: absolute; left: 50%; top: 20px; font-size: 12px; transform: translateX(-50%);"">0</div>
          <div style=""position: absolute; right: 0%; top: 20px; font-size: 12px;"">+500 ms</div>
        </div>

        <p>Press any key to continue.</p>
      </div>
    ","feedback_text","","","",""
"null","null","html-keyboard-response","127","80282","0.0-127.0","","<p style=""font-size: 48px;"">+</p>","iti","","","",""
"null","null","html-keyboard-response","128","80785","0.0-128.0","","<div class=""circle ready""></div>","ready","","","",""
"null","null","html-keyboard-response","129","81338","0.0-129.0","","","isi","","","",""
"null","null","html-keyboard-response","130","81841","0.0-130.0","","<div class=""circle set""></div>","set","500","","",""
"648"," ","html-keyboard-response","131","82490","0.0-131.0","","","go","","550","648","98"
"null","null","html-keyboard-response","132","82992","0.0-132.0","","<div class=""circle go""></div>","feedback_circle","","","",""
"null","null","html-keyboard-response","133","83495","0.0-133.0","","
      <div style=""text-align:center;"">
        
        <p style=""font-size: 16px; text-align: center;"">Trial 20 of 900</p>
        <p><strong>Error:</strong> +98 ms</p>

        <div style=""position: relative; width: 80%; height: 40px; margin: 40px auto;"">
          <div style=""height: 8px; background: linear-gradient(to right, #3498db, #ccc, #e74c3c); border-radius: 4px;""></div>
          <div style=""position: absolute; left: 59.8%; top: -6px; transform: translateX(-50%);"">
            <div style=""width: 14px; height: 14px; background: black; border-radius: 50%; border: 2px solid white;""></div>
          </div>
          <div style=""position: absolute; left: 0%; top: 20px; font-size: 12px;"">–500 ms</div>
          <div style=""position: absolute; left: 50%; top: 20px; font-size: 12px; transform: translateX(-50%);"">0</div>
          <div style=""position: absolute; right: 0%; top: 20px; font-size: 12px;"">+500 ms</div>
        </div>

        <p>Press any key to continue.</p>
      </div>
    ","feedback_text","","","",""
"null","null","html-keyboard-response","134","84497","0.0-134.0","","<p style=""font-size: 48px;"">+</p>","iti","","","",""
"null","null","html-keyboard-response","135","85000","0.0-135.0","","<div class=""circle ready""></div>","ready","","","",""
"null","null","html-keyboard-response","136","85492","0.0-136.0","","","isi","","","",""
"null","null","html-keyboard-response","137","85996","0.0-137.0","","<div class=""circle set""></div>","set","500","","",""
"603"," ","html-keyboard-response","138","86600","0.0-138.0","","","go","","490","603","113"
"null","null","html-keyboard-response","139","87101","0.0-139.0","","<div class=""circle go""></div>","feedback_circle","","","",""
"null","null","html-keyboard-response","140","87604","0.0-140.0","","
      <div style=""text-align:center;"">
        
        <p style=""font-size: 16px; text-align: center;"">Trial 21 of 900</p>
        <p><strong>Error:</strong> +113 ms</p>

        <div style=""position: relative; width: 80%; height: 40px; margin: 40px auto;"">
          <div style=""height: 8px; background: linear-gradient(to right, #3498db, #ccc, #e74c3c); border-radius: 4px;""></div>
          <div style=""position: absolute; left: 61.3%; top: -6px; transform: translateX(-50%);"">
            <div style=""width: 14px; height: 14px; background: black; border-radius: 50%; border: 2px solid white;""></div>
          </div>
          <div style=""position: absolute; left: 0%; top: 20px; font-size: 12px;"">–500 ms</div>
          <div style=""position: absolute; left: 50%; top: 20px; font-size: 12px; transform: translateX(-50%);"">0</div>
          <div style=""position: absolute; right: 0%; top: 20px; font-size: 12px;"">+500 ms</div>
        </div>

        <p>Press any key to continue.</p>
      </div>
    ","feedback_text","","","",""
"null","null","html-keyboard-response","141","88606","0.0-141.0","","<p style=""font-size: 48px;"">+</p>","iti","","","",""
"null","null","html-keyboard-response","142","89109","0.0-142.0","","<div class=""circle ready""></div>","ready","","","",""
"null","null","html-keyboard-response","143","89842","0.0-143.0","","","isi","","","",""
"null","null","html-keyboard-response","144","90345","0.0-144.0","","<div class=""circle set""></div>","set","500","","",""
"734"," ","html-keyboard-response","145","91080","0.0-145.0","","","go","","730","734","4"
"null","null","html-keyboard-response","146","91581","0.0-146.0","","<div class=""circle go""></div>","feedback_circle","","","",""
"null","null","html-keyboard-response","147","92084","0.0-147.0","","
      <div style=""text-align:center;"">
        
        <p style=""font-size: 16px; text-align: center;"">Trial 22 of 900</p>
        <p><strong>Error:</strong> +4 ms</p>

        <div style=""position: relative; width: 80%; height: 40px; margin: 40px auto;"">
          <div style=""height: 8px; background: linear-gradient(to right, #3498db, #ccc, #e74c3c); border-radius: 4px;""></div>
          <div style=""position: absolute; left: 50.4%; top: -6px; transform: translateX(-50%);"">
            <div style=""width: 14px; height: 14px; background: black; border-radius: 50%; border: 2px solid white;""></div>
          </div>
          <div style=""position: absolute; left: 0%; top: 20px; font-size: 12px;"">–500 ms</div>
          <div style=""position: absolute; left: 50%; top: 20px; font-size: 12px; transform: translateX(-50%);"">0</div>
          <div style=""position: absolute; right: 0%; top: 20px; font-size: 12px;"">+500 ms</div>
        </div>

        <p>Press any key to continue.</p>
      </div>
    ","feedback_text","","","",""
"null","null","html-keyboard-response","148","93088","0.0-148.0","","<p style=""font-size: 48px;"">+</p>","iti","","","",""
"null","null","html-keyboard-response","149","93590","0.0-149.0","","<div class=""circle ready""></div>","ready","","","",""
"null","null","html-keyboard-response","150","94083","0.0-150.0","","","isi","","","",""
"null","null","html-keyboard-response","151","94586","0.0-151.0","","<div class=""circle set""></div>","set","500","","",""
"510"," ","html-keyboard-response","152","95098","0.0-152.0","","","go","","490","510","20"
"null","null","html-keyboard-response","153","95599","0.0-153.0","","<div class=""circle go""></div>","feedback_circle","","","",""
"null","null","html-keyboard-response","154","96103","0.0-154.0","","
      <div style=""text-align:center;"">
        
        <p style=""font-size: 16px; text-align: center;"">Trial 23 of 900</p>
        <p><strong>Error:</strong> +20 ms</p>

        <div style=""position: relative; width: 80%; height: 40px; margin: 40px auto;"">
          <div style=""height: 8px; background: linear-gradient(to right, #3498db, #ccc, #e74c3c); border-radius: 4px;""></div>
          <div style=""position: absolute; left: 52%; top: -6px; transform: translateX(-50%);"">
            <div style=""width: 14px; height: 14px; background: black; border-radius: 50%; border: 2px solid white;""></div>
          </div>
          <div style=""position: absolute; left: 0%; top: 20px; font-size: 12px;"">–500 ms</div>
          <div style=""position: absolute; left: 50%; top: 20px; font-size: 12px; transform: translateX(-50%);"">0</div>
          <div style=""position: absolute; right: 0%; top: 20px; font-size: 12px;"">+500 ms</div>
        </div>

        <p>Press any key to continue.</p>
      </div>
    ","feedback_text","","","",""
"null","null","html-keyboard-response","155","97106","0.0-155.0","","<p style=""font-size: 48px;"">+</p>","iti","","","",""
"null","null","html-keyboard-response","156","97609","0.0-156.0","","<div class=""circle ready""></div>","ready","","","",""
"null","null","html-keyboard-response","157","98102","0.0-157.0","","","isi","","","",""
"null","null","html-keyboard-response","158","98604","0.0-158.0","","<div class=""circle set""></div>","set","500","","",""
"438"," ","html-keyboard-response","159","99044","0.0-159.0","","","go","","490","438","-52"
"null","null","html-keyboard-response","160","99546","0.0-160.0","","<div class=""circle go""></div>","feedback_circle","","","",""
"null","null","html-keyboard-response","161","100049","0.0-161.0","","
      <div style=""text-align:center;"">
        
        <p style=""font-size: 16px; text-align: center;"">Trial 24 of 900</p>
        <p><strong>Error:</strong> -52 ms</p>

        <div style=""position: relative; width: 80%; height: 40px; margin: 40px auto;"">
          <div style=""height: 8px; background: linear-gradient(to right, #3498db, #ccc, #e74c3c); border-radius: 4px;""></div>
          <div style=""position: absolute; left: 44.800000000000004%; top: -6px; transform: translateX(-50%);"">
            <div style=""width: 14px; height: 14px; background: black; border-radius: 50%; border: 2px solid white;""></div>
          </div>
          <div style=""position: absolute; left: 0%; top: 20px; font-size: 12px;"">–500 ms</div>
          <div style=""position: absolute; left: 50%; top: 20px; font-size: 12px; transform: translateX(-50%);"">0</div>
          <div style=""position: absolute; right: 0%; top: 20px; font-size: 12px;"">+500 ms</div>
        </div>

        <p>Press any key to continue.</p>
      </div>
    ","feedback_text","","","",""
"null","null","html-keyboard-response","162","101052","0.0-162.0","","<p style=""font-size: 48px;"">+</p>","iti","","","",""
"null","null","html-keyboard-response","163","101555","0.0-163.0","","<div class=""circle ready""></div>","ready","","","",""
"null","null","html-keyboard-response","164","102107","0.0-164.0","","","isi","","","",""
"null","null","html-keyboard-response","165","102610","0.0-165.0","","<div class=""circle set""></div>","set","500","","",""
"583"," ","html-keyboard-response","166","103195","0.0-166.0","","","go","","550","583","33"
"null","null","html-keyboard-response","167","103697","0.0-167.0","","<div class=""circle go""></div>","feedback_circle","","","",""
"null","null","html-keyboard-response","168","104200","0.0-168.0","","
      <div style=""text-align:center;"">
        
        <p style=""font-size: 16px; text-align: center;"">Trial 25 of 900</p>
        <p><strong>Error:</strong> +33 ms</p>

        <div style=""position: relative; width: 80%; height: 40px; margin: 40px auto;"">
          <div style=""height: 8px; background: linear-gradient(to right, #3498db, #ccc, #e74c3c); border-radius: 4px;""></div>
          <div style=""position: absolute; left: 53.300000000000004%; top: -6px; transform: translateX(-50%);"">
            <div style=""width: 14px; height: 14px; background: black; border-radius: 50%; border: 2px solid white;""></div>
          </div>
          <div style=""position: absolute; left: 0%; top: 20px; font-size: 12px;"">–500 ms</div>
          <div style=""position: absolute; left: 50%; top: 20px; font-size: 12px; transform: translateX(-50%);"">0</div>
          <div style=""position: absolute; right: 0%; top: 20px; font-size: 12px;"">+500 ms</div>
        </div>

        <p>Press any key to continue.</p>
      </div>
    ","feedback_text","","","",""
"null","null","html-keyboard-response","169","105204","0.0-169.0","","<p style=""font-size: 48px;"">+</p>","iti","","","",""
"null","null","html-keyboard-response","170","105706","0.0-170.0","","<div class=""circle ready""></div>","ready","","","",""
"null","null","html-keyboard-response","171","106500","0.0-171.0","","","isi","","","",""
"null","null","html-keyboard-response","172","107003","0.0-172.0","","<div class=""circle set""></div>","set","500","","",""
"895"," ","html-keyboard-response","173","107899","0.0-173.0","","","go","","790","895","105"
"null","null","html-keyboard-response","174","108402","0.0-174.0","","<div class=""circle go""></div>","feedback_circle","","","",""
"null","null","html-keyboard-response","175","108905","0.0-175.0","","
      <div style=""text-align:center;"">
        
        <p style=""font-size: 16px; text-align: center;"">Trial 26 of 900</p>
        <p><strong>Error:</strong> +105 ms</p>

        <div style=""position: relative; width: 80%; height: 40px; margin: 40px auto;"">
          <div style=""height: 8px; background: linear-gradient(to right, #3498db, #ccc, #e74c3c); border-radius: 4px;""></div>
          <div style=""position: absolute; left: 60.5%; top: -6px; transform: translateX(-50%);"">
            <div style=""width: 14px; height: 14px; background: black; border-radius: 50%; border: 2px solid white;""></div>
          </div>
          <div style=""position: absolute; left: 0%; top: 20px; font-size: 12px;"">–500 ms</div>
          <div style=""position: absolute; left: 50%; top: 20px; font-size: 12px; transform: translateX(-50%);"">0</div>
          <div style=""position: absolute; right: 0%; top: 20px; font-size: 12px;"">+500 ms</div>
        </div>

        <p>Press any key to continue.</p>
      </div>
    ","feedback_text","","","",""
"null","null","html-keyboard-response","176","109908","0.0-176.0","","<p style=""font-size: 48px;"">+</p>","iti","","","",""
"null","null","html-keyboard-response","177","110410","0.0-177.0","","<div class=""circle ready""></div>","ready","","","",""
"null","null","html-keyboard-response","178","110963","0.0-178.0","","","isi","","","",""
"null","null","html-keyboard-response","179","111466","0.0-179.0","","<div class=""circle set""></div>","set","500","","",""
"593"," ","html-keyboard-response","180","112061","0.0-180.0","","","go","","550","593","43"
"null","null","html-keyboard-response","181","112563","0.0-181.0","","<div class=""circle go""></div>","feedback_circle","","","",""
"null","null","html-keyboard-response","182","113066","0.0-182.0","","
      <div style=""text-align:center;"">
        
        <p style=""font-size: 16px; text-align: center;"">Trial 27 of 900</p>
        <p><strong>Error:</strong> +43 ms</p>

        <div style=""position: relative; width: 80%; height: 40px; margin: 40px auto;"">
          <div style=""height: 8px; background: linear-gradient(to right, #3498db, #ccc, #e74c3c); border-radius: 4px;""></div>
          <div style=""position: absolute; left: 54.300000000000004%; top: -6px; transform: translateX(-50%);"">
            <div style=""width: 14px; height: 14px; background: black; border-radius: 50%; border: 2px solid white;""></div>
          </div>
          <div style=""position: absolute; left: 0%; top: 20px; font-size: 12px;"">–500 ms</div>
          <div style=""position: absolute; left: 50%; top: 20px; font-size: 12px; transform: translateX(-50%);"">0</div>
          <div style=""position: absolute; right: 0%; top: 20px; font-size: 12px;"">+500 ms</div>
        </div>

        <p>Press any key to continue.</p>
      </div>
    ","feedback_text","","","",""
"null","null","html-keyboard-response","183","114069","0.0-183.0","","<p style=""font-size: 48px;"">+</p>","iti","","","",""
"null","null","html-keyboard-response","184","114572","0.0-184.0","","<div class=""circle ready""></div>","ready","","","",""
"null","null","html-keyboard-response","185","115185","0.0-185.0","","","isi","","","",""
"null","null","html-keyboard-response","186","115688","0.0-186.0","","<div class=""circle set""></div>","set","500","","",""
"673"," ","html-keyboard-response","187","116363","0.0-187.0","","","go","","610","673","63"
"null","null","html-keyboard-response","188","116864","0.0-188.0","","<div class=""circle go""></div>","feedback_circle","","","",""
"null","null","html-keyboard-response","189","117367","0.0-189.0","","
      <div style=""text-align:center;"">
        
        <p style=""font-size: 16px; text-align: center;"">Trial 28 of 900</p>
        <p><strong>Error:</strong> +63 ms</p>

        <div style=""position: relative; width: 80%; height: 40px; margin: 40px auto;"">
          <div style=""height: 8px; background: linear-gradient(to right, #3498db, #ccc, #e74c3c); border-radius: 4px;""></div>
          <div style=""position: absolute; left: 56.3%; top: -6px; transform: translateX(-50%);"">
            <div style=""width: 14px; height: 14px; background: black; border-radius: 50%; border: 2px solid white;""></div>
          </div>
          <div style=""position: absolute; left: 0%; top: 20px; font-size: 12px;"">–500 ms</div>
          <div style=""position: absolute; left: 50%; top: 20px; font-size: 12px; transform: translateX(-50%);"">0</div>
          <div style=""position: absolute; right: 0%; top: 20px; font-size: 12px;"">+500 ms</div>
        </div>

        <p>Press any key to continue.</p>
      </div>
    ","feedback_text","","","",""
"null","null","html-keyboard-response","190","118370","0.0-190.0","","<p style=""font-size: 48px;"">+</p>","iti","","","",""
"null","null","html-keyboard-response","191","118872","0.0-191.0","","<div class=""circle ready""></div>","ready","","","",""
"null","null","html-keyboard-response","192","119365","0.0-192.0","","","isi","","","",""
"null","null","html-keyboard-response","193","119868","0.0-193.0","","<div class=""circle set""></div>","set","500","","",""
"357"," ","html-keyboard-response","194","120227","0.0-194.0","","","go","","490","357","-133"
"null","null","html-keyboard-response","195","120728","0.0-195.0","","<div class=""circle go""></div>","feedback_circle","","","",""
"null","null","html-keyboard-response","196","121232","0.0-196.0","","
      <div style=""text-align:center;"">
        
        <p style=""font-size: 16px; text-align: center;"">Trial 29 of 900</p>
        <p><strong>Error:</strong> -133 ms</p>

        <div style=""position: relative; width: 80%; height: 40px; margin: 40px auto;"">
          <div style=""height: 8px; background: linear-gradient(to right, #3498db, #ccc, #e74c3c); border-radius: 4px;""></div>
          <div style=""position: absolute; left: 36.7%; top: -6px; transform: translateX(-50%);"">
            <div style=""width: 14px; height: 14px; background: black; border-radius: 50%; border: 2px solid white;""></div>
          </div>
          <div style=""position: absolute; left: 0%; top: 20px; font-size: 12px;"">–500 ms</div>
          <div style=""position: absolute; left: 50%; top: 20px; font-size: 12px; transform: translateX(-50%);"">0</div>
          <div style=""position: absolute; right: 0%; top: 20px; font-size: 12px;"">+500 ms</div>
        </div>

        <p>Press any key to continue.</p>
      </div>
    ","feedback_text","","","",""
"null","null","html-keyboard-response","197","122234","0.0-197.0","","<p style=""font-size: 48px;"">+</p>","iti","","","",""
"null","null","html-keyboard-response","198","122738","0.0-198.0","","<div class=""circle ready""></div>","ready","","","",""
"null","null","html-keyboard-response","199","123291","0.0-199.0","","","isi","","","",""
"null","null","html-keyboard-response","200","123794","0.0-200.0","","<div class=""circle set""></div>","set","500","","",""
"608"," ","html-keyboard-response","201","124403","0.0-201.0","","","go","","550","608","58"
"null","null","html-keyboard-response","202","124905","0.0-202.0","","<div class=""circle go""></div>","feedback_circle","","","",""
"null","null","html-keyboard-response","203","125408","0.0-203.0","","
      <div style=""text-align:center;"">
        
        <p style=""font-size: 16px; text-align: center;"">Trial 30 of 900</p>
        <p><strong>Error:</strong> +58 ms</p>

        <div style=""position: relative; width: 80%; height: 40px; margin: 40px auto;"">
          <div style=""height: 8px; background: linear-gradient(to right, #3498db, #ccc, #e74c3c); border-radius: 4px;""></div>
          <div style=""position: absolute; left: 55.800000000000004%; top: -6px; transform: translateX(-50%);"">
            <div style=""width: 14px; height: 14px; background: black; border-radius: 50%; border: 2px solid white;""></div>
          </div>
          <div style=""position: absolute; left: 0%; top: 20px; font-size: 12px;"">–500 ms</div>
          <div style=""position: absolute; left: 50%; top: 20px; font-size: 12px; transform: translateX(-50%);"">0</div>
          <div style=""position: absolute; right: 0%; top: 20px; font-size: 12px;"">+500 ms</div>
        </div>

        <p>Press any key to continue.</p>
      </div>
    ","feedback_text","","","",""
"null","null","html-keyboard-response","204","126411","0.0-204.0","","<p style=""font-size: 48px;"">+</p>","iti","","","",""
"null","null","html-keyboard-response","205","126914","0.0-205.0","","<div class=""circle ready""></div>","ready","","","",""
"null","null","html-keyboard-response","206","127587","0.0-206.0","","","isi","","","",""
"null","null","html-keyboard-response","207","128090","0.0-207.0","","<div class=""circle set""></div>","set","500","","",""
"700"," ","html-keyboard-response","208","128791","0.0-208.0","","","go","","670","700","30"
"null","null","html-keyboard-response","209","129292","0.0-209.0","","<div class=""circle go""></div>","feedback_circle","","","",""
"null","null","html-keyboard-response","210","129796","0.0-210.0","","
      <div style=""text-align:center;"">
        
        <p style=""font-size: 16px; text-align: center;"">Trial 31 of 900</p>
        <p><strong>Error:</strong> +30 ms</p>

        <div style=""position: relative; width: 80%; height: 40px; margin: 40px auto;"">
          <div style=""height: 8px; background: linear-gradient(to right, #3498db, #ccc, #e74c3c); border-radius: 4px;""></div>
          <div style=""position: absolute; left: 53%; top: -6px; transform: translateX(-50%);"">
            <div style=""width: 14px; height: 14px; background: black; border-radius: 50%; border: 2px solid white;""></div>
          </div>
          <div style=""position: absolute; left: 0%; top: 20px; font-size: 12px;"">–500 ms</div>
          <div style=""position: absolute; left: 50%; top: 20px; font-size: 12px; transform: translateX(-50%);"">0</div>
          <div style=""position: absolute; right: 0%; top: 20px; font-size: 12px;"">+500 ms</div>
        </div>

        <p>Press any key to continue.</p>
      </div>
    ","feedback_text","","","",""
"null","null","html-keyboard-response","211","130799","0.0-211.0","","<p style=""font-size: 48px;"">+</p>","iti","","","",""
"null","null","html-keyboard-response","212","131302","0.0-212.0","","<div class=""circle ready""></div>","ready","","","",""
"null","null","html-keyboard-response","213","131975","0.0-213.0","","","isi","","","",""
"null","null","html-keyboard-response","214","132477","0.0-214.0","","<div class=""circle set""></div>","set","500","","",""
"816"," ","html-keyboard-response","215","133295","0.0-215.0","","","go","","670","816","146"
"null","null","html-keyboard-response","216","133796","0.0-216.0","","<div class=""circle go""></div>","feedback_circle","","","",""
"null","null","html-keyboard-response","217","134300","0.0-217.0","","
      <div style=""text-align:center;"">
        
        <p style=""font-size: 16px; text-align: center;"">Trial 32 of 900</p>
        <p><strong>Error:</strong> +146 ms</p>

        <div style=""position: relative; width: 80%; height: 40px; margin: 40px auto;"">
          <div style=""height: 8px; background: linear-gradient(to right, #3498db, #ccc, #e74c3c); border-radius: 4px;""></div>
          <div style=""position: absolute; left: 64.60000000000001%; top: -6px; transform: translateX(-50%);"">
            <div style=""width: 14px; height: 14px; background: black; border-radius: 50%; border: 2px solid white;""></div>
          </div>
          <div style=""position: absolute; left: 0%; top: 20px; font-size: 12px;"">–500 ms</div>
          <div style=""position: absolute; left: 50%; top: 20px; font-size: 12px; transform: translateX(-50%);"">0</div>
          <div style=""position: absolute; right: 0%; top: 20px; font-size: 12px;"">+500 ms</div>
        </div>

        <p>Press any key to continue.</p>
      </div>
    ","feedback_text","","","",""
"null","null","html-keyboard-response","218","135302","0.0-218.0","","<p style=""font-size: 48px;"">+</p>","iti","","","",""
"null","null","html-keyboard-response","219","135805","0.0-219.0","","<div class=""circle ready""></div>","ready","","","",""
"null","null","html-keyboard-response","220","136418","0.0-220.0","","","isi","","","",""
"null","null","html-keyboard-response","221","136921","0.0-221.0","","<div class=""circle set""></div>","set","500","","",""
"797"," ","html-keyboard-response","222","137719","0.0-222.0","","","go","","610","797","187"
"null","null","html-keyboard-response","223","138222","0.0-223.0","","<div class=""circle go""></div>","feedback_circle","","","",""
"null","null","html-keyboard-response","224","138724","0.0-224.0","","
      <div style=""text-align:center;"">
        
        <p style=""font-size: 16px; text-align: center;"">Trial 33 of 900</p>
        <p><strong>Error:</strong> +187 ms</p>

        <div style=""position: relative; width: 80%; height: 40px; margin: 40px auto;"">
          <div style=""height: 8px; background: linear-gradient(to right, #3498db, #ccc, #e74c3c); border-radius: 4px;""></div>
          <div style=""position: absolute; left: 68.7%; top: -6px; transform: translateX(-50%);"">
            <div style=""width: 14px; height: 14px; background: black; border-radius: 50%; border: 2px solid white;""></div>
          </div>
          <div style=""position: absolute; left: 0%; top: 20px; font-size: 12px;"">–500 ms</div>
          <div style=""position: absolute; left: 50%; top: 20px; font-size: 12px; transform: translateX(-50%);"">0</div>
          <div style=""position: absolute; right: 0%; top: 20px; font-size: 12px;"">+500 ms</div>
        </div>

        <p>Press any key to continue.</p>
      </div>
    ","feedback_text","","","",""
"null","null","html-keyboard-response","225","139725","0.0-225.0","","<p style=""font-size: 48px;"">+</p>","iti","","","",""
"null","null","html-keyboard-response","226","140228","0.0-226.0","","<div class=""circle ready""></div>","ready","","","",""
"null","null","html-keyboard-response","227","140962","0.0-227.0","","","isi","","","",""
"null","null","html-keyboard-response","228","141465","0.0-228.0","","<div class=""circle set""></div>","set","500","","",""
"605"," ","html-keyboard-response","229","142071","0.0-229.0","","","go","","730","605","-125"
"null","null","html-keyboard-response","230","142573","0.0-230.0","","<div class=""circle go""></div>","feedback_circle","","","",""
"null","null","html-keyboard-response","231","143075","0.0-231.0","","
      <div style=""text-align:center;"">
        
        <p style=""font-size: 16px; text-align: center;"">Trial 34 of 900</p>
        <p><strong>Error:</strong> -125 ms</p>

        <div style=""position: relative; width: 80%; height: 40px; margin: 40px auto;"">
          <div style=""height: 8px; background: linear-gradient(to right, #3498db, #ccc, #e74c3c); border-radius: 4px;""></div>
          <div style=""position: absolute; left: 37.5%; top: -6px; transform: translateX(-50%);"">
            <div style=""width: 14px; height: 14px; background: black; border-radius: 50%; border: 2px solid white;""></div>
          </div>
          <div style=""position: absolute; left: 0%; top: 20px; font-size: 12px;"">–500 ms</div>
          <div style=""position: absolute; left: 50%; top: 20px; font-size: 12px; transform: translateX(-50%);"">0</div>
          <div style=""position: absolute; right: 0%; top: 20px; font-size: 12px;"">+500 ms</div>
        </div>

        <p>Press any key to continue.</p>
      </div>
    ","feedback_text","","","",""
"null","null","html-keyboard-response","232","144078","0.0-232.0","","<p style=""font-size: 48px;"">+</p>","iti","","","",""
"null","null","html-keyboard-response","233","144581","0.0-233.0","","<div class=""circle ready""></div>","ready","","","",""
"null","null","html-keyboard-response","234","145195","0.0-234.0","","","isi","","","",""
"null","null","html-keyboard-response","235","145697","0.0-235.0","","<div class=""circle set""></div>","set","500","","",""
"631"," ","html-keyboard-response","236","146329","0.0-236.0","","","go","","610","631","21"
"null","null","html-keyboard-response","237","146831","0.0-237.0","","<div class=""circle go""></div>","feedback_circle","","","",""
"null","null","html-keyboard-response","238","147334","0.0-238.0","","
      <div style=""text-align:center;"">
        
        <p style=""font-size: 16px; text-align: center;"">Trial 35 of 900</p>
        <p><strong>Error:</strong> +21 ms</p>

        <div style=""position: relative; width: 80%; height: 40px; margin: 40px auto;"">
          <div style=""height: 8px; background: linear-gradient(to right, #3498db, #ccc, #e74c3c); border-radius: 4px;""></div>
          <div style=""position: absolute; left: 52.1%; top: -6px; transform: translateX(-50%);"">
            <div style=""width: 14px; height: 14px; background: black; border-radius: 50%; border: 2px solid white;""></div>
          </div>
          <div style=""position: absolute; left: 0%; top: 20px; font-size: 12px;"">–500 ms</div>
          <div style=""position: absolute; left: 50%; top: 20px; font-size: 12px; transform: translateX(-50%);"">0</div>
          <div style=""position: absolute; right: 0%; top: 20px; font-size: 12px;"">+500 ms</div>
        </div>

        <p>Press any key to continue.</p>
      </div>
    ","feedback_text","","","",""
"null","null","html-keyboard-response","239","148337","0.0-239.0","","<p style=""font-size: 48px;"">+</p>","iti","","","",""
"null","null","html-keyboard-response","240","148840","0.0-240.0","","<div class=""circle ready""></div>","ready","","","",""
"null","null","html-keyboard-response","241","149333","0.0-241.0","","","isi","","","",""
"null","null","html-keyboard-response","242","149836","0.0-242.0","","<div class=""circle set""></div>","set","500","","",""
"491"," ","html-keyboard-response","243","150328","0.0-243.0","","","go","","490","491","1"
"null","null","html-keyboard-response","244","150831","0.0-244.0","","<div class=""circle go""></div>","feedback_circle","","","",""
"null","null","html-keyboard-response","245","151335","0.0-245.0","","
      <div style=""text-align:center;"">
        
        <p style=""font-size: 16px; text-align: center;"">Trial 36 of 900</p>
        <p><strong>Error:</strong> +1 ms</p>

        <div style=""position: relative; width: 80%; height: 40px; margin: 40px auto;"">
          <div style=""height: 8px; background: linear-gradient(to right, #3498db, #ccc, #e74c3c); border-radius: 4px;""></div>
          <div style=""position: absolute; left: 50.1%; top: -6px; transform: translateX(-50%);"">
            <div style=""width: 14px; height: 14px; background: black; border-radius: 50%; border: 2px solid white;""></div>
          </div>
          <div style=""position: absolute; left: 0%; top: 20px; font-size: 12px;"">–500 ms</div>
          <div style=""position: absolute; left: 50%; top: 20px; font-size: 12px; transform: translateX(-50%);"">0</div>
          <div style=""position: absolute; right: 0%; top: 20px; font-size: 12px;"">+500 ms</div>
        </div>

        <p>Press any key to continue.</p>
      </div>
    ","feedback_text","","","",""
"null","null","html-keyboard-response","246","152337","0.0-246.0","","<p style=""font-size: 48px;"">+</p>","iti","","","",""
"null","null","html-keyboard-response","247","152840","0.0-247.0","","<div class=""circle ready""></div>","ready","","","",""
"null","null","html-keyboard-response","248","153513","0.0-248.0","","","isi","","","",""
"null","null","html-keyboard-response","249","154015","0.0-249.0","","<div class=""circle set""></div>","set","500","","",""
"662"," ","html-keyboard-response","250","154679","0.0-250.0","","","go","","670","662","-8"
"null","null","html-keyboard-response","251","155181","0.0-251.0","","<div class=""circle go""></div>","feedback_circle","","","",""
"null","null","html-keyboard-response","252","155685","0.0-252.0","","
      <div style=""text-align:center;"">
        
        <p style=""font-size: 16px; text-align: center;"">Trial 37 of 900</p>
        <p><strong>Error:</strong> -8 ms</p>

        <div style=""position: relative; width: 80%; height: 40px; margin: 40px auto;"">
          <div style=""height: 8px; background: linear-gradient(to right, #3498db, #ccc, #e74c3c); border-radius: 4px;""></div>
          <div style=""position: absolute; left: 49.2%; top: -6px; transform: translateX(-50%);"">
            <div style=""width: 14px; height: 14px; background: black; border-radius: 50%; border: 2px solid white;""></div>
          </div>
          <div style=""position: absolute; left: 0%; top: 20px; font-size: 12px;"">–500 ms</div>
          <div style=""position: absolute; left: 50%; top: 20px; font-size: 12px; transform: translateX(-50%);"">0</div>
          <div style=""position: absolute; right: 0%; top: 20px; font-size: 12px;"">+500 ms</div>
        </div>

        <p>Press any key to continue.</p>
      </div>
    ","feedback_text","","","",""
"null","null","html-keyboard-response","253","156687","0.0-253.0","","<p style=""font-size: 48px;"">+</p>","iti","","","",""
"null","null","html-keyboard-response","254","157191","0.0-254.0","","<div class=""circle ready""></div>","ready","","","",""
"null","null","html-keyboard-response","255","157924","0.0-255.0","","","isi","","","",""
"null","null","html-keyboard-response","256","158426","0.0-256.0","","<div class=""circle set""></div>","set","500","","",""
"798"," ","html-keyboard-response","257","159225","0.0-257.0","","","go","","730","798","68"
"null","null","html-keyboard-response","258","159727","0.0-258.0","","<div class=""circle go""></div>","feedback_circle","","","",""
"null","null","html-keyboard-response","259","160232","0.0-259.0","","
      <div style=""text-align:center;"">
        
        <p style=""font-size: 16px; text-align: center;"">Trial 38 of 900</p>
        <p><strong>Error:</strong> +68 ms</p>

        <div style=""position: relative; width: 80%; height: 40px; margin: 40px auto;"">
          <div style=""height: 8px; background: linear-gradient(to right, #3498db, #ccc, #e74c3c); border-radius: 4px;""></div>
          <div style=""position: absolute; left: 56.8%; top: -6px; transform: translateX(-50%);"">
            <div style=""width: 14px; height: 14px; background: black; border-radius: 50%; border: 2px solid white;""></div>
          </div>
          <div style=""position: absolute; left: 0%; top: 20px; font-size: 12px;"">–500 ms</div>
          <div style=""position: absolute; left: 50%; top: 20px; font-size: 12px; transform: translateX(-50%);"">0</div>
          <div style=""position: absolute; right: 0%; top: 20px; font-size: 12px;"">+500 ms</div>
        </div>

        <p>Press any key to continue.</p>
      </div>
    ","feedback_text","","","",""
"null","null","html-keyboard-response","260","161234","0.0-260.0","","<p style=""font-size: 48px;"">+</p>","iti","","","",""
"null","null","html-keyboard-response","261","161737","0.0-261.0","","<div class=""circle ready""></div>","ready","","","",""
"null","null","html-keyboard-response","262","162529","0.0-262.0","","","isi","","","",""
"null","null","html-keyboard-response","263","163032","0.0-263.0","","<div class=""circle set""></div>","set","500","","",""
"951"," ","html-keyboard-response","264","163984","0.0-264.0","","","go","","790","951","161"
"null","null","html-keyboard-response","265","164486","0.0-265.0","","<div class=""circle go""></div>","feedback_circle","","","",""
"null","null","html-keyboard-response","266","164989","0.0-266.0","","
      <div style=""text-align:center;"">
        
        <p style=""font-size: 16px; text-align: center;"">Trial 39 of 900</p>
        <p><strong>Error:</strong> +161 ms</p>

        <div style=""position: relative; width: 80%; height: 40px; margin: 40px auto;"">
          <div style=""height: 8px; background: linear-gradient(to right, #3498db, #ccc, #e74c3c); border-radius: 4px;""></div>
          <div style=""position: absolute; left: 66.10000000000001%; top: -6px; transform: translateX(-50%);"">
            <div style=""width: 14px; height: 14px; background: black; border-radius: 50%; border: 2px solid white;""></div>
          </div>
          <div style=""position: absolute; left: 0%; top: 20px; font-size: 12px;"">–500 ms</div>
          <div style=""position: absolute; left: 50%; top: 20px; font-size: 12px; transform: translateX(-50%);"">0</div>
          <div style=""position: absolute; right: 0%; top: 20px; font-size: 12px;"">+500 ms</div>
        </div>

        <p>Press any key to continue.</p>
      </div>
    ","feedback_text","","","",""
"null","null","html-keyboard-response","267","165991","0.0-267.0","","<p style=""font-size: 48px;"">+</p>","iti","","","",""
"null","null","html-keyboard-response","268","166494","0.0-268.0","","<div class=""circle ready""></div>","ready","","","",""
"null","null","html-keyboard-response","269","167226","0.0-269.0","","","isi","","","",""
"null","null","html-keyboard-response","270","167729","0.0-270.0","","<div class=""circle set""></div>","set","500","","",""
"605"," ","html-keyboard-response","271","168335","0.0-271.0","","","go","","730","605","-125"
"null","null","html-keyboard-response","272","168836","0.0-272.0","","<div class=""circle go""></div>","feedback_circle","","","",""
"null","null","html-keyboard-response","273","169340","0.0-273.0","","
      <div style=""text-align:center;"">
        
        <p style=""font-size: 16px; text-align: center;"">Trial 40 of 900</p>
        <p><strong>Error:</strong> -125 ms</p>

        <div style=""position: relative; width: 80%; height: 40px; margin: 40px auto;"">
          <div style=""height: 8px; background: linear-gradient(to right, #3498db, #ccc, #e74c3c); border-radius: 4px;""></div>
          <div style=""position: absolute; left: 37.5%; top: -6px; transform: translateX(-50%);"">
            <div style=""width: 14px; height: 14px; background: black; border-radius: 50%; border: 2px solid white;""></div>
          </div>
          <div style=""position: absolute; left: 0%; top: 20px; font-size: 12px;"">–500 ms</div>
          <div style=""position: absolute; left: 50%; top: 20px; font-size: 12px; transform: translateX(-50%);"">0</div>
          <div style=""position: absolute; right: 0%; top: 20px; font-size: 12px;"">+500 ms</div>
        </div>

        <p>Press any key to continue.</p>
      </div>
    ","feedback_text","","","",""
"null","null","html-keyboard-response","274","170343","0.0-274.0","","<p style=""font-size: 48px;"">+</p>","iti","","","",""
"null","null","html-keyboard-response","275","170845","0.0-275.0","","<div class=""circle ready""></div>","ready","","","",""
"null","null","html-keyboard-response","276","171578","0.0-276.0","","","isi","","","",""
"null","null","html-keyboard-response","277","172081","0.0-277.0","","<div class=""circle set""></div>","set","500","","",""
"703"," ","html-keyboard-response","278","172785","0.0-278.0","","","go","","730","703","-27"
"null","null","html-keyboard-response","279","173287","0.0-279.0","","<div class=""circle go""></div>","feedback_circle","","","",""
"null","null","html-keyboard-response","280","173790","0.0-280.0","","
      <div style=""text-align:center;"">
        
        <p style=""font-size: 16px; text-align: center;"">Trial 41 of 900</p>
        <p><strong>Error:</strong> -27 ms</p>

        <div style=""position: relative; width: 80%; height: 40px; margin: 40px auto;"">
          <div style=""height: 8px; background: linear-gradient(to right, #3498db, #ccc, #e74c3c); border-radius: 4px;""></div>
          <div style=""position: absolute; left: 47.3%; top: -6px; transform: translateX(-50%);"">
            <div style=""width: 14px; height: 14px; background: black; border-radius: 50%; border: 2px solid white;""></div>
          </div>
          <div style=""position: absolute; left: 0%; top: 20px; font-size: 12px;"">–500 ms</div>
          <div style=""position: absolute; left: 50%; top: 20px; font-size: 12px; transform: translateX(-50%);"">0</div>
          <div style=""position: absolute; right: 0%; top: 20px; font-size: 12px;"">+500 ms</div>
        </div>

        <p>Press any key to continue.</p>
      </div>
    ","feedback_text","","","",""
"null","null","html-keyboard-response","281","174792","0.0-281.0","","<p style=""font-size: 48px;"">+</p>","iti","","","",""
"null","null","html-keyboard-response","282","175295","0.0-282.0","","<div class=""circle ready""></div>","ready","","","",""
"null","null","html-keyboard-response","283","175787","0.0-283.0","","","isi","","","",""
"null","null","html-keyboard-response","284","176290","0.0-284.0","","<div class=""circle set""></div>","set","500","","",""
"424"," ","html-keyboard-response","285","176715","0.0-285.0","","","go","","490","424","-66"
"null","null","html-keyboard-response","286","177217","0.0-286.0","","<div class=""circle go""></div>","feedback_circle","","","",""
"null","null","html-keyboard-response","287","177720","0.0-287.0","","
      <div style=""text-align:center;"">
        
        <p style=""font-size: 16px; text-align: center;"">Trial 42 of 900</p>
        <p><strong>Error:</strong> -66 ms</p>

        <div style=""position: relative; width: 80%; height: 40px; margin: 40px auto;"">
          <div style=""height: 8px; background: linear-gradient(to right, #3498db, #ccc, #e74c3c); border-radius: 4px;""></div>
          <div style=""position: absolute; left: 43.4%; top: -6px; transform: translateX(-50%);"">
            <div style=""width: 14px; height: 14px; background: black; border-radius: 50%; border: 2px solid white;""></div>
          </div>
          <div style=""position: absolute; left: 0%; top: 20px; font-size: 12px;"">–500 ms</div>
          <div style=""position: absolute; left: 50%; top: 20px; font-size: 12px; transform: translateX(-50%);"">0</div>
          <div style=""position: absolute; right: 0%; top: 20px; font-size: 12px;"">+500 ms</div>
        </div>

        <p>Press any key to continue.</p>
      </div>
    ","feedback_text","","","",""
"null","null","html-keyboard-response","288","178723","0.0-288.0","","<p style=""font-size: 48px;"">+</p>","iti","","","",""
"null","null","html-keyboard-response","289","179226","0.0-289.0","","<div class=""circle ready""></div>","ready","","","",""
"null","null","html-keyboard-response","290","180019","0.0-290.0","","","isi","","","",""
"null","null","html-keyboard-response","291","180522","0.0-291.0","","<div class=""circle set""></div>","set","500","","",""
"797"," ","html-keyboard-response","292","181321","0.0-292.0","","","go","","790","797","7"
"null","null","html-keyboard-response","293","181822","0.0-293.0","","<div class=""circle go""></div>","feedback_circle","","","",""
"null","null","html-keyboard-response","294","182325","0.0-294.0","","
      <div style=""text-align:center;"">
        
        <p style=""font-size: 16px; text-align: center;"">Trial 43 of 900</p>
        <p><strong>Error:</strong> +7 ms</p>

        <div style=""position: relative; width: 80%; height: 40px; margin: 40px auto;"">
          <div style=""height: 8px; background: linear-gradient(to right, #3498db, #ccc, #e74c3c); border-radius: 4px;""></div>
          <div style=""position: absolute; left: 50.7%; top: -6px; transform: translateX(-50%);"">
            <div style=""width: 14px; height: 14px; background: black; border-radius: 50%; border: 2px solid white;""></div>
          </div>
          <div style=""position: absolute; left: 0%; top: 20px; font-size: 12px;"">–500 ms</div>
          <div style=""position: absolute; left: 50%; top: 20px; font-size: 12px; transform: translateX(-50%);"">0</div>
          <div style=""position: absolute; right: 0%; top: 20px; font-size: 12px;"">+500 ms</div>
        </div>

        <p>Press any key to continue.</p>
      </div>
    ","feedback_text","","","",""
"null","null","html-keyboard-response","295","183328","0.0-295.0","","<p style=""font-size: 48px;"">+</p>","iti","","","",""
"null","null","html-keyboard-response","296","183831","0.0-296.0","","<div class=""circle ready""></div>","ready","","","",""
"null","null","html-keyboard-response","297","184623","0.0-297.0","","","isi","","","",""
"null","null","html-keyboard-response","298","185126","0.0-298.0","","<div class=""circle set""></div>","set","500","","",""
"717"," ","html-keyboard-response","299","185844","0.0-299.0","","","go","","790","717","-73"
"null","null","html-keyboard-response","300","186346","0.0-300.0","","<div class=""circle go""></div>","feedback_circle","","","",""
"null","null","html-keyboard-response","301","186849","0.0-301.0","","
      <div style=""text-align:center;"">
        
        <p style=""font-size: 16px; text-align: center;"">Trial 44 of 900</p>
        <p><strong>Error:</strong> -73 ms</p>

        <div style=""position: relative; width: 80%; height: 40px; margin: 40px auto;"">
          <div style=""height: 8px; background: linear-gradient(to right, #3498db, #ccc, #e74c3c); border-radius: 4px;""></div>
          <div style=""position: absolute; left: 42.699999999999996%; top: -6px; transform: translateX(-50%);"">
            <div style=""width: 14px; height: 14px; background: black; border-radius: 50%; border: 2px solid white;""></div>
          </div>
          <div style=""position: absolute; left: 0%; top: 20px; font-size: 12px;"">–500 ms</div>
          <div style=""position: absolute; left: 50%; top: 20px; font-size: 12px; transform: translateX(-50%);"">0</div>
          <div style=""position: absolute; right: 0%; top: 20px; font-size: 12px;"">+500 ms</div>
        </div>

        <p>Press any key to continue.</p>
      </div>
    ","feedback_text","","","",""
"null","null","html-keyboard-response","302","187852","0.0-302.0","","<p style=""font-size: 48px;"">+</p>","iti","","","",""
"null","null","html-keyboard-response","303","188355","0.0-303.0","","<div class=""circle ready""></div>","ready","","","",""
"null","null","html-keyboard-response","304","189089","0.0-304.0","","","isi","","","",""
"null","null","html-keyboard-response","305","189592","0.0-305.0","","<div class=""circle set""></div>","set","500","","",""
"651"," ","html-keyboard-response","306","190243","0.0-306.0","","","go","","730","651","-79"
"null","null","html-keyboard-response","307","190746","0.0-307.0","","<div class=""circle go""></div>","feedback_circle","","","",""
"null","null","html-keyboard-response","308","191249","0.0-308.0","","
      <div style=""text-align:center;"">
        
        <p style=""font-size: 16px; text-align: center;"">Trial 45 of 900</p>
        <p><strong>Error:</strong> -79 ms</p>

        <div style=""position: relative; width: 80%; height: 40px; margin: 40px auto;"">
          <div style=""height: 8px; background: linear-gradient(to right, #3498db, #ccc, #e74c3c); border-radius: 4px;""></div>
          <div style=""position: absolute; left: 42.1%; top: -6px; transform: translateX(-50%);"">
            <div style=""width: 14px; height: 14px; background: black; border-radius: 50%; border: 2px solid white;""></div>
          </div>
          <div style=""position: absolute; left: 0%; top: 20px; font-size: 12px;"">–500 ms</div>
          <div style=""position: absolute; left: 50%; top: 20px; font-size: 12px; transform: translateX(-50%);"">0</div>
          <div style=""position: absolute; right: 0%; top: 20px; font-size: 12px;"">+500 ms</div>
        </div>

        <p>Press any key to continue.</p>
      </div>
    ","feedback_text","","","",""
"null","null","html-keyboard-response","309","192252","0.0-309.0","","<p style=""font-size: 48px;"">+</p>","iti","","","",""
"null","null","html-keyboard-response","310","192755","0.0-310.0","","<div class=""circle ready""></div>","ready","","","",""
"null","null","html-keyboard-response","311","193368","0.0-311.0","","","isi","","","",""
"null","null","html-keyboard-response","312","193871","0.0-312.0","","<div class=""circle set""></div>","set","500","","",""
"616"," ","html-keyboard-response","313","194488","0.0-313.0","","","go","","610","616","6"
"null","null","html-keyboard-response","314","194990","0.0-314.0","","<div class=""circle go""></div>","feedback_circle","","","",""
"null","null","html-keyboard-response","315","195494","0.0-315.0","","
      <div style=""text-align:center;"">
        
        <p style=""font-size: 16px; text-align: center;"">Trial 46 of 900</p>
        <p><strong>Error:</strong> +6 ms</p>

        <div style=""position: relative; width: 80%; height: 40px; margin: 40px auto;"">
          <div style=""height: 8px; background: linear-gradient(to right, #3498db, #ccc, #e74c3c); border-radius: 4px;""></div>
          <div style=""position: absolute; left: 50.6%; top: -6px; transform: translateX(-50%);"">
            <div style=""width: 14px; height: 14px; background: black; border-radius: 50%; border: 2px solid white;""></div>
          </div>
          <div style=""position: absolute; left: 0%; top: 20px; font-size: 12px;"">–500 ms</div>
          <div style=""position: absolute; left: 50%; top: 20px; font-size: 12px; transform: translateX(-50%);"">0</div>
          <div style=""position: absolute; right: 0%; top: 20px; font-size: 12px;"">+500 ms</div>
        </div>

        <p>Press any key to continue.</p>
      </div>
    ","feedback_text","","","",""
"null","null","html-keyboard-response","316","196496","0.0-316.0","","<p style=""font-size: 48px;"">+</p>","iti","","","",""
"null","null","html-keyboard-response","317","196999","0.0-317.0","","<div class=""circle ready""></div>","ready","","","",""
"null","null","html-keyboard-response","318","197852","0.0-318.0","","","isi","","","",""
"null","null","html-keyboard-response","319","198354","0.0-319.0","","<div class=""circle set""></div>","set","500","","",""
"1084"," ","html-keyboard-response","320","199439","0.0-320.0","","","go","","850","1084","234"
"null","null","html-keyboard-response","321","199941","0.0-321.0","","<div class=""circle go""></div>","feedback_circle","","","",""
"null","null","html-keyboard-response","322","200444","0.0-322.0","","
      <div style=""text-align:center;"">
        
        <p style=""font-size: 16px; text-align: center;"">Trial 47 of 900</p>
        <p><strong>Error:</strong> +234 ms</p>

        <div style=""position: relative; width: 80%; height: 40px; margin: 40px auto;"">
          <div style=""height: 8px; background: linear-gradient(to right, #3498db, #ccc, #e74c3c); border-radius: 4px;""></div>
          <div style=""position: absolute; left: 73.4%; top: -6px; transform: translateX(-50%);"">
            <div style=""width: 14px; height: 14px; background: black; border-radius: 50%; border: 2px solid white;""></div>
          </div>
          <div style=""position: absolute; left: 0%; top: 20px; font-size: 12px;"">–500 ms</div>
          <div style=""position: absolute; left: 50%; top: 20px; font-size: 12px; transform: translateX(-50%);"">0</div>
          <div style=""position: absolute; right: 0%; top: 20px; font-size: 12px;"">+500 ms</div>
        </div>

        <p>Press any key to continue.</p>
      </div>
    ","feedback_text","","","",""
"null","null","html-keyboard-response","323","201446","0.0-323.0","","<p style=""font-size: 48px;"">+</p>","iti","","","",""
"null","null","html-keyboard-response","324","201949","0.0-324.0","","<div class=""circle ready""></div>","ready","","","",""
"null","null","html-keyboard-response","325","202502","0.0-325.0","","","isi","","","",""
"null","null","html-keyboard-response","326","203005","0.0-326.0","","<div class=""circle set""></div>","set","500","","",""
"532"," ","html-keyboard-response","327","203538","0.0-327.0","","","go","","550","532","-18"
"null","null","html-keyboard-response","328","204040","0.0-328.0","","<div class=""circle go""></div>","feedback_circle","","","",""
"null","null","html-keyboard-response","329","204543","0.0-329.0","","
      <div style=""text-align:center;"">
        
        <p style=""font-size: 16px; text-align: center;"">Trial 48 of 900</p>
        <p><strong>Error:</strong> -18 ms</p>

        <div style=""position: relative; width: 80%; height: 40px; margin: 40px auto;"">
          <div style=""height: 8px; background: linear-gradient(to right, #3498db, #ccc, #e74c3c); border-radius: 4px;""></div>
          <div style=""position: absolute; left: 48.199999999999996%; top: -6px; transform: translateX(-50%);"">
            <div style=""width: 14px; height: 14px; background: black; border-radius: 50%; border: 2px solid white;""></div>
          </div>
          <div style=""position: absolute; left: 0%; top: 20px; font-size: 12px;"">–500 ms</div>
          <div style=""position: absolute; left: 50%; top: 20px; font-size: 12px; transform: translateX(-50%);"">0</div>
          <div style=""position: absolute; right: 0%; top: 20px; font-size: 12px;"">+500 ms</div>
        </div>

        <p>Press any key to continue.</p>
      </div>
    ","feedback_text","","","",""
"null","null","html-keyboard-response","330","205545","0.0-330.0","","<p style=""font-size: 48px;"">+</p>","iti","","","",""
"null","null","html-keyboard-response","331","206048","0.0-331.0","","<div class=""circle ready""></div>","ready","","","",""
"null","null","html-keyboard-response","332","206660","0.0-332.0","","","isi","","","",""
"null","null","html-keyboard-response","333","207163","0.0-333.0","","<div class=""circle set""></div>","set","500","","",""
"716"," ","html-keyboard-response","334","207881","0.0-334.0","","","go","","610","716","106"
"null","null","html-keyboard-response","335","208383","0.0-335.0","","<div class=""circle go""></div>","feedback_circle","","","",""
"null","null","html-keyboard-response","336","208887","0.0-336.0","","
      <div style=""text-align:center;"">
        
        <p style=""font-size: 16px; text-align: center;"">Trial 49 of 900</p>
        <p><strong>Error:</strong> +106 ms</p>

        <div style=""position: relative; width: 80%; height: 40px; margin: 40px auto;"">
          <div style=""height: 8px; background: linear-gradient(to right, #3498db, #ccc, #e74c3c); border-radius: 4px;""></div>
          <div style=""position: absolute; left: 60.6%; top: -6px; transform: translateX(-50%);"">
            <div style=""width: 14px; height: 14px; background: black; border-radius: 50%; border: 2px solid white;""></div>
          </div>
          <div style=""position: absolute; left: 0%; top: 20px; font-size: 12px;"">–500 ms</div>
          <div style=""position: absolute; left: 50%; top: 20px; font-size: 12px; transform: translateX(-50%);"">0</div>
          <div style=""position: absolute; right: 0%; top: 20px; font-size: 12px;"">+500 ms</div>
        </div>

        <p>Press any key to continue.</p>
      </div>
    ","feedback_text","","","",""
"null","null","html-keyboard-response","337","209890","0.0-337.0","","<p style=""font-size: 48px;"">+</p>","iti","","","",""
"null","null","html-keyboard-response","338","210393","0.0-338.0","","<div class=""circle ready""></div>","ready","","","",""
"null","null","html-keyboard-response","339","211186","0.0-339.0","","","isi","","","",""
"null","null","html-keyboard-response","340","211688","0.0-340.0","","<div class=""circle set""></div>","set","500","","",""
"619"," ","html-keyboard-response","341","212308","0.0-341.0","","","go","","790","619","-171"
"null","null","html-keyboard-response","342","212810","0.0-342.0","","<div class=""circle go""></div>","feedback_circle","","","",""
"null","null","html-keyboard-response","343","213314","0.0-343.0","","
      <div style=""text-align:center;"">
        
        <p style=""font-size: 16px; text-align: center;"">Trial 50 of 900</p>
        <p><strong>Error:</strong> -171 ms</p>

        <div style=""position: relative; width: 80%; height: 40px; margin: 40px auto;"">
          <div style=""height: 8px; background: linear-gradient(to right, #3498db, #ccc, #e74c3c); border-radius: 4px;""></div>
          <div style=""position: absolute; left: 32.9%; top: -6px; transform: translateX(-50%);"">
            <div style=""width: 14px; height: 14px; background: black; border-radius: 50%; border: 2px solid white;""></div>
          </div>
          <div style=""position: absolute; left: 0%; top: 20px; font-size: 12px;"">–500 ms</div>
          <div style=""position: absolute; left: 50%; top: 20px; font-size: 12px; transform: translateX(-50%);"">0</div>
          <div style=""position: absolute; right: 0%; top: 20px; font-size: 12px;"">+500 ms</div>
        </div>

        <p>Press any key to continue.</p>
      </div>
    ","feedback_text","","","",""
"null","null","html-keyboard-response","344","214317","0.0-344.0","","<p style=""font-size: 48px;"">+</p>","iti","","","",""
"null","null","html-keyboard-response","345","214820","0.0-345.0","","<div class=""circle ready""></div>","ready","","","",""
"null","null","html-keyboard-response","346","215493","0.0-346.0","","","isi","","","",""
"null","null","html-keyboard-response","347","215996","0.0-347.0","","<div class=""circle set""></div>","set","500","","",""
"622"," ","html-keyboard-response","348","216619","0.0-348.0","","","go","","670","622","-48"
"null","null","html-keyboard-response","349","217122","0.0-349.0","","<div class=""circle go""></div>","feedback_circle","","","",""
"null","null","html-keyboard-response","350","217625","0.0-350.0","","
      <div style=""text-align:center;"">
        
        <p style=""font-size: 16px; text-align: center;"">Trial 51 of 900</p>
        <p><strong>Error:</strong> -48 ms</p>

        <div style=""position: relative; width: 80%; height: 40px; margin: 40px auto;"">
          <div style=""height: 8px; background: linear-gradient(to right, #3498db, #ccc, #e74c3c); border-radius: 4px;""></div>
          <div style=""position: absolute; left: 45.2%; top: -6px; transform: translateX(-50%);"">
            <div style=""width: 14px; height: 14px; background: black; border-radius: 50%; border: 2px solid white;""></div>
          </div>
          <div style=""position: absolute; left: 0%; top: 20px; font-size: 12px;"">–500 ms</div>
          <div style=""position: absolute; left: 50%; top: 20px; font-size: 12px; transform: translateX(-50%);"">0</div>
          <div style=""position: absolute; right: 0%; top: 20px; font-size: 12px;"">+500 ms</div>
        </div>

        <p>Press any key to continue.</p>
      </div>
    ","feedback_text","","","",""
"null","null","html-keyboard-response","351","218627","0.0-351.0","","<p style=""font-size: 48px;"">+</p>","iti","","","",""
"null","null","html-keyboard-response","352","219130","0.0-352.0","","<div class=""circle ready""></div>","ready","","","",""
"null","null","html-keyboard-response","353","219863","0.0-353.0","","","isi","","","",""
"null","null","html-keyboard-response","354","220366","0.0-354.0","","<div class=""circle set""></div>","set","500","","",""
"800"," ","html-keyboard-response","355","221167","0.0-355.0","","","go","","730","800","70"
"null","null","html-keyboard-response","356","221669","0.0-356.0","","<div class=""circle go""></div>","feedback_circle","","","",""
"null","null","html-keyboard-response","357","222173","0.0-357.0","","
      <div style=""text-align:center;"">
        
        <p style=""font-size: 16px; text-align: center;"">Trial 52 of 900</p>
        <p><strong>Error:</strong> +70 ms</p>

        <div style=""position: relative; width: 80%; height: 40px; margin: 40px auto;"">
          <div style=""height: 8px; background: linear-gradient(to right, #3498db, #ccc, #e74c3c); border-radius: 4px;""></div>
          <div style=""position: absolute; left: 56.99999999999999%; top: -6px; transform: translateX(-50%);"">
            <div style=""width: 14px; height: 14px; background: black; border-radius: 50%; border: 2px solid white;""></div>
          </div>
          <div style=""position: absolute; left: 0%; top: 20px; font-size: 12px;"">–500 ms</div>
          <div style=""position: absolute; left: 50%; top: 20px; font-size: 12px; transform: translateX(-50%);"">0</div>
          <div style=""position: absolute; right: 0%; top: 20px; font-size: 12px;"">+500 ms</div>
        </div>

        <p>Press any key to continue.</p>
      </div>
    ","feedback_text","","","",""
"null","null","html-keyboard-response","358","223176","0.0-358.0","","<p style=""font-size: 48px;"">+</p>","iti","","","",""
"null","null","html-keyboard-response","359","223678","0.0-359.0","","<div class=""circle ready""></div>","ready","","","",""
"null","null","html-keyboard-response","360","224351","0.0-360.0","","","isi","","","",""
"null","null","html-keyboard-response","361","224854","0.0-361.0","","<div class=""circle set""></div>","set","500","","",""
"916"," ","html-keyboard-response","362","225771","0.0-362.0","","","go","","670","916","246"
"null","null","html-keyboard-response","363","226273","0.0-363.0","","<div class=""circle go""></div>","feedback_circle","","","",""
"null","null","html-keyboard-response","364","226775","0.0-364.0","","
      <div style=""text-align:center;"">
        
        <p style=""font-size: 16px; text-align: center;"">Trial 53 of 900</p>
        <p><strong>Error:</strong> +246 ms</p>

        <div style=""position: relative; width: 80%; height: 40px; margin: 40px auto;"">
          <div style=""height: 8px; background: linear-gradient(to right, #3498db, #ccc, #e74c3c); border-radius: 4px;""></div>
          <div style=""position: absolute; left: 74.6%; top: -6px; transform: translateX(-50%);"">
            <div style=""width: 14px; height: 14px; background: black; border-radius: 50%; border: 2px solid white;""></div>
          </div>
          <div style=""position: absolute; left: 0%; top: 20px; font-size: 12px;"">–500 ms</div>
          <div style=""position: absolute; left: 50%; top: 20px; font-size: 12px; transform: translateX(-50%);"">0</div>
          <div style=""position: absolute; right: 0%; top: 20px; font-size: 12px;"">+500 ms</div>
        </div>

        <p>Press any key to continue.</p>
      </div>
    ","feedback_text","","","",""
"null","null","html-keyboard-response","365","227777","0.0-365.0","","<p style=""font-size: 48px;"">+</p>","iti","","","",""
"null","null","html-keyboard-response","366","228280","0.0-366.0","","<div class=""circle ready""></div>","ready","","","",""
"null","null","html-keyboard-response","367","228833","0.0-367.0","","","isi","","","",""
"null","null","html-keyboard-response","368","229336","0.0-368.0","","<div class=""circle set""></div>","set","500","","",""
"545"," ","html-keyboard-response","369","229882","0.0-369.0","","","go","","550","545","-5"
"null","null","html-keyboard-response","370","230383","0.0-370.0","","<div class=""circle go""></div>","feedback_circle","","","",""
"null","null","html-keyboard-response","371","230886","0.0-371.0","","
      <div style=""text-align:center;"">
        
        <p style=""font-size: 16px; text-align: center;"">Trial 54 of 900</p>
        <p><strong>Error:</strong> -5 ms</p>

        <div style=""position: relative; width: 80%; height: 40px; margin: 40px auto;"">
          <div style=""height: 8px; background: linear-gradient(to right, #3498db, #ccc, #e74c3c); border-radius: 4px;""></div>
          <div style=""position: absolute; left: 49.5%; top: -6px; transform: translateX(-50%);"">
            <div style=""width: 14px; height: 14px; background: black; border-radius: 50%; border: 2px solid white;""></div>
          </div>
          <div style=""position: absolute; left: 0%; top: 20px; font-size: 12px;"">–500 ms</div>
          <div style=""position: absolute; left: 50%; top: 20px; font-size: 12px; transform: translateX(-50%);"">0</div>
          <div style=""position: absolute; right: 0%; top: 20px; font-size: 12px;"">+500 ms</div>
        </div>

        <p>Press any key to continue.</p>
      </div>
    ","feedback_text","","","",""
"null","null","html-keyboard-response","372","231889","0.0-372.0","","<p style=""font-size: 48px;"">+</p>","iti","","","",""
"null","null","html-keyboard-response","373","232391","0.0-373.0","","<div class=""circle ready""></div>","ready","","","",""
"null","null","html-keyboard-response","374","233184","0.0-374.0","","","isi","","","",""
"null","null","html-keyboard-response","375","233687","0.0-375.0","","<div class=""circle set""></div>","set","500","","",""
"864"," ","html-keyboard-response","376","234552","0.0-376.0","","","go","","790","864","74"
"null","null","html-keyboard-response","377","235053","0.0-377.0","","<div class=""circle go""></div>","feedback_circle","","","",""
"null","null","html-keyboard-response","378","235557","0.0-378.0","","
      <div style=""text-align:center;"">
        
        <p style=""font-size: 16px; text-align: center;"">Trial 55 of 900</p>
        <p><strong>Error:</strong> +74 ms</p>

        <div style=""position: relative; width: 80%; height: 40px; margin: 40px auto;"">
          <div style=""height: 8px; background: linear-gradient(to right, #3498db, #ccc, #e74c3c); border-radius: 4px;""></div>
          <div style=""position: absolute; left: 57.4%; top: -6px; transform: translateX(-50%);"">
            <div style=""width: 14px; height: 14px; background: black; border-radius: 50%; border: 2px solid white;""></div>
          </div>
          <div style=""position: absolute; left: 0%; top: 20px; font-size: 12px;"">–500 ms</div>
          <div style=""position: absolute; left: 50%; top: 20px; font-size: 12px; transform: translateX(-50%);"">0</div>
          <div style=""position: absolute; right: 0%; top: 20px; font-size: 12px;"">+500 ms</div>
        </div>

        <p>Press any key to continue.</p>
      </div>
    ","feedback_text","","","",""
"null","null","html-keyboard-response","379","236560","0.0-379.0","","<p style=""font-size: 48px;"">+</p>","iti","","","",""
"null","null","html-keyboard-response","380","237063","0.0-380.0","","<div class=""circle ready""></div>","ready","","","",""
"null","null","html-keyboard-response","381","237916","0.0-381.0","","","isi","","","",""
"null","null","html-keyboard-response","382","238418","0.0-382.0","","<div class=""circle set""></div>","set","500","","",""
"788"," ","html-keyboard-response","383","239207","0.0-383.0","","","go","","850","788","-62"
"null","null","html-keyboard-response","384","239709","0.0-384.0","","<div class=""circle go""></div>","feedback_circle","","","",""
"null","null","html-keyboard-response","385","240213","0.0-385.0","","
      <div style=""text-align:center;"">
        
        <p style=""font-size: 16px; text-align: center;"">Trial 56 of 900</p>
        <p><strong>Error:</strong> -62 ms</p>

