"rt","response","trial_type","trial_index","time_elapsed","internal_node_id","subject_ID","stimulus","phase","set_duration","target_interval","reproduced_interval","reproduction_error"
"4060","{""subject_id"":""adi""}","survey-text","0","4063","0.0-0.0","","","","","","",""
"3240"," ","html-keyboard-response","1","7305","0.0-1.0","","
      <p>Ready-Set-Go Task:</p>
      <ul style=""text-align:left; max-width:600px; margin:auto;"">
        <li><strong>Blue circle (""Ready"")</strong> appears</li>
        <li>Then, after a delay, a <strong>green circle (""Set"")</strong> appears</li>
        <li>After ""Set"" disappears, screen goes blank</li>
        <li>You must <strong>press SPACE</strong> when you think the same delay has passed</li>
        <li>After you press, a red circle will appear</li>
        <li>Then you'll see how close your timing was (only for the first 5 trials).</li>
      </ul>
      <p>Press any key to begin.</p>
    ","","","","",""
"null","null","html-keyboard-response","2","7807","0.0-2.0","","<div class=""circle ready""></div>","ready","","","",""
"null","null","html-keyboard-response","3","8990","0.0-3.0","","","isi","","","",""
"null","null","html-keyboard-response","4","9494","0.0-4.0","","<div class=""circle set""></div>","set_on_1","","","",""
"null","null","html-keyboard-response","5","9997","0.0-5.0","","","set_gap","500","","",""
"null","null","html-keyboard-response","6","10500","0.0-6.0","","<div class=""circle set""></div>","set_on_2","","","",""
"870"," ","html-keyboard-response","7","11371","0.0-7.0","","","go","500","1180","870","-310"
"null","null","html-keyboard-response","8","11873","0.0-8.0","","<div class=""circle""></div>","feedback_circle","","","",""
"null","null","html-keyboard-response","9","12375","0.0-9.0","","<div class=""circle""></div>","feedback_circle","","","",""
"3885"," ","html-keyboard-response","10","16262","0.0-10.0","","
      <p><strong>Set duration:</strong> 500 ms</p>
      <p><strong>Interval you saw:</strong> 1180 ms</p>
      <p><strong>Interval you reported:</strong> 870 ms</p>
      <p><strong>Error:</strong> -310 ms</p>
      <p>Press any key to continue.</p>
    ","feedback_text","","","",""
"null","null","html-keyboard-response","11","17265","0.0-11.0","","<p style=""font-size: 48px;"">+</p>","iti","","","",""
"null","null","html-keyboard-response","12","17768","0.0-12.0","","<div class=""circle ready""></div>","ready","","","",""
"null","null","html-keyboard-response","13","18621","0.0-13.0","","","isi","","","",""
"null","null","html-keyboard-response","14","19124","0.0-14.0","","<div class=""circle set""></div>","set_on_1","","","",""
"null","null","html-keyboard-response","15","20627","0.0-15.0","","","set_gap","1500","","",""
"null","null","html-keyboard-response","16","21130","0.0-16.0","","<div class=""circle set""></div>","set_on_2","","","",""
"987"," ","html-keyboard-response","17","22119","0.0-17.0","","","go","1500","850","987","137"
"null","null","html-keyboard-response","18","22621","0.0-18.0","","<div class=""circle""></div>","feedback_circle","","","",""
"null","null","html-keyboard-response","19","23125","0.0-19.0","","<div class=""circle""></div>","feedback_circle","","","",""
"2644"," ","html-keyboard-response","20","25770","0.0-20.0","","
      <p><strong>Set duration:</strong> 1500 ms</p>
      <p><strong>Interval you saw:</strong> 850 ms</p>
      <p><strong>Interval you reported:</strong> 987 ms</p>
      <p><strong>Error:</strong> +137 ms</p>
      <p>Press any key to continue.</p>
    ","feedback_text","","","",""
"null","null","html-keyboard-response","21","26773","0.0-21.0","","<p style=""font-size: 48px;"">+</p>","iti","","","",""
"null","null","html-keyboard-response","22","27276","0.0-22.0","","<div class=""circle ready""></div>","ready","","","",""
"null","null","html-keyboard-response","23","27809","0.0-23.0","","","isi","","","",""
"null","null","html-keyboard-response","24","28312","0.0-24.0","","<div class=""circle set""></div>","set_on_1","","","",""
"null","null","html-keyboard-response","25","29314","0.0-25.0","","","set_gap","1000","","",""
"null","null","html-keyboard-response","26","29818","0.0-26.0","","<div class=""circle set""></div>","set_on_2","","","",""
"615"," ","html-keyboard-response","27","30433","0.0-27.0","","","go","1000","530","615","85"
"null","null","html-keyboard-response","28","30935","0.0-28.0","","<div class=""circle""></div>","feedback_circle","","","",""
"null","null","html-keyboard-response","29","31437","0.0-29.0","","<div class=""circle""></div>","feedback_circle","","","",""
"33436"," ","html-keyboard-response","30","64874","0.0-30.0","","
      <p><strong>Set duration:</strong> 1000 ms</p>
      <p><strong>Interval you saw:</strong> 530 ms</p>
      <p><strong>Interval you reported:</strong> 615 ms</p>
      <p><strong>Error:</strong> +85 ms</p>
      <p>Press any key to continue.</p>
    ","feedback_text","","","",""
"null","null","html-keyboard-response","31","65877","0.0-31.0","","<p style=""font-size: 48px;"">+</p>","iti","","","",""
"null","null","html-keyboard-response","32","66379","0.0-32.0","","<div class=""circle ready""></div>","ready","","","",""
"null","null","html-keyboard-response","33","66582","0.0-33.0","","","isi","","","",""
"null","null","html-keyboard-response","34","67084","0.0-34.0","","<div class=""circle set""></div>","set_on_1","","","",""
"null","null","html-keyboard-response","35","67587","0.0-35.0","","","set_gap","500","","",""
"null","null","html-keyboard-response","36","68090","0.0-36.0","","<div class=""circle set""></div>","set_on_2","","","",""
"65"," ","html-keyboard-response","37","68156","0.0-37.0","","","go","500","200","65","-135"
"null","null","html-keyboard-response","38","68658","0.0-38.0","","<div class=""circle""></div>","feedback_circle","","","",""
"null","null","html-keyboard-response","39","69161","0.0-39.0","","<div class=""circle""></div>","feedback_circle","","","",""
"6142"," ","html-keyboard-response","40","75304","0.0-40.0","","
      <p><strong>Set duration:</strong> 500 ms</p>
      <p><strong>Interval you saw:</strong> 200 ms</p>
      <p><strong>Interval you reported:</strong> 65 ms</p>
      <p><strong>Error:</strong> -135 ms</p>
      <p>Press any key to continue.</p>
    ","feedback_text","","","",""
"null","null","html-keyboard-response","41","76306","0.0-41.0","","<p style=""font-size: 48px;"">+</p>","iti","","","",""
"null","null","html-keyboard-response","42","76809","0.0-42.0","","<div class=""circle ready""></div>","ready","","","",""
"null","null","html-keyboard-response","43","77011","0.0-43.0","","","isi","","","",""
"null","null","html-keyboard-response","44","77513","0.0-44.0","","<div class=""circle set""></div>","set_on_1","","","",""
"null","null","html-keyboard-response","45","78516","0.0-45.0","","","set_gap","1000","","",""
"null","null","html-keyboard-response","46","79018","0.0-46.0","","<div class=""circle set""></div>","set_on_2","","","",""
"226"," ","html-keyboard-response","47","79245","0.0-47.0","","","go","1000","200","226","26"
"null","null","html-keyboard-response","48","79747","0.0-48.0","","<div class=""circle""></div>","feedback_circle","","","",""
"null","null","html-keyboard-response","49","80249","0.0-49.0","","<div class=""circle""></div>","feedback_circle","","","",""
"1951"," ","html-keyboard-response","50","82202","0.0-50.0","","
      <p><strong>Set duration:</strong> 1000 ms</p>
      <p><strong>Interval you saw:</strong> 200 ms</p>
      <p><strong>Interval you reported:</strong> 226 ms</p>
      <p><strong>Error:</strong> +26 ms</p>
      <p>Press any key to continue.</p>
    ","feedback_text","","","",""
"null","null","html-keyboard-response","51","83205","0.0-51.0","","<p style=""font-size: 48px;"">+</p>","iti","","","",""
"null","null","html-keyboard-response","52","83707","0.0-52.0","","<div class=""circle ready""></div>","ready","","","",""
"null","null","html-keyboard-response","53","85210","0.0-53.0","","","isi","","","",""
"null","null","html-keyboard-response","54","85713","0.0-54.0","","<div class=""circle set""></div>","set_on_1","","","",""
"null","null","html-keyboard-response","55","87216","0.0-55.0","","","set_gap","1500","","",""
"null","null","html-keyboard-response","56","87719","0.0-56.0","","<div class=""circle set""></div>","set_on_2","","","",""
"1447"," ","html-keyboard-response","57","89167","0.0-57.0","","","go","1500","1500","1447","-53"
"null","null","html-keyboard-response","58","89668","0.0-58.0","","<div class=""circle""></div>","feedback_circle","","","",""
"null","null","html-keyboard-response","59","90671","0.0-59.0","","<p style=""font-size: 48px;"">+</p>","iti","","","",""
"null","null","html-keyboard-response","60","91173","0.0-60.0","","<div class=""circle ready""></div>","ready","","","",""
"null","null","html-keyboard-response","61","91376","0.0-61.0","","","isi","","","",""
"null","null","html-keyboard-response","62","91878","0.0-62.0","","<div class=""circle set""></div>","set_on_1","","","",""
"null","null","html-keyboard-response","63","93380","0.0-63.0","","","set_gap","1500","","",""
"null","null","html-keyboard-response","64","93883","0.0-64.0","","<div class=""circle set""></div>","set_on_2","","","",""
"291"," ","html-keyboard-response","65","94175","0.0-65.0","","","go","1500","200","291","91"
"null","null","html-keyboard-response","66","94676","0.0-66.0","","<div class=""circle""></div>","feedback_circle","","","",""
"null","null","html-keyboard-response","67","95678","0.0-67.0","","<p style=""font-size: 48px;"">+</p>","iti","","","",""
"null","null","html-keyboard-response","68","96181","0.0-68.0","","<div class=""circle ready""></div>","ready","","","",""
"null","null","html-keyboard-response","69","96714","0.0-69.0","","","isi","","","",""
"null","null","html-keyboard-response","70","97216","0.0-70.0","","<div class=""circle set""></div>","set_on_1","","","",""
"null","null","html-keyboard-response","71","98719","0.0-71.0","","","set_gap","1500","","",""
"null","null","html-keyboard-response","72","99221","0.0-72.0","","<div class=""circle set""></div>","set_on_2","","","",""
"603"," ","html-keyboard-response","73","99824","0.0-73.0","","","go","1500","530","603","73"
"null","null","html-keyboard-response","74","100325","0.0-74.0","","<div class=""circle""></div>","feedback_circle","","","",""
"null","null","html-keyboard-response","75","101327","0.0-75.0","","<p style=""font-size: 48px;"">+</p>","iti","","","",""
"null","null","html-keyboard-response","76","101829","0.0-76.0","","<div class=""circle ready""></div>","ready","","","",""
"null","null","html-keyboard-response","77","102681","0.0-77.0","","","isi","","","",""
"null","null","html-keyboard-response","78","103184","0.0-78.0","","<div class=""circle set""></div>","set_on_1","","","",""
"null","null","html-keyboard-response","79","104686","0.0-79.0","","","set_gap","1500","","",""
"null","null","html-keyboard-response","80","105189","0.0-80.0","","<div class=""circle set""></div>","set_on_2","","","",""
"438"," ","html-keyboard-response","81","105628","0.0-81.0","","","go","1500","850","438","-412"
"null","null","html-keyboard-response","82","106129","0.0-82.0","","<div class=""circle""></div>","feedback_circle","","","",""
"null","null","html-keyboard-response","83","107132","0.0-83.0","","<p style=""font-size: 48px;"">+</p>","iti","","","",""
"null","null","html-keyboard-response","84","107634","0.0-84.0","","<div class=""circle ready""></div>","ready","","","",""
"null","null","html-keyboard-response","85","108167","0.0-85.0","","","isi","","","",""
"null","null","html-keyboard-response","86","108669","0.0-86.0","","<div class=""circle set""></div>","set_on_1","","","",""
"null","null","html-keyboard-response","87","109672","0.0-87.0","","","set_gap","1000","","",""
"null","null","html-keyboard-response","88","110174","0.0-88.0","","<div class=""circle set""></div>","set_on_2","","","",""
"461"," ","html-keyboard-response","89","110636","0.0-89.0","","","go","1000","530","461","-69"
"null","null","html-keyboard-response","90","111138","0.0-90.0","","<div class=""circle""></div>","feedback_circle","","","",""
"null","null","html-keyboard-response","91","112140","0.0-91.0","","<p style=""font-size: 48px;"">+</p>","iti","","","",""
"null","null","html-keyboard-response","92","112643","0.0-92.0","","<div class=""circle ready""></div>","ready","","","",""
"null","null","html-keyboard-response","93","112845","0.0-93.0","","","isi","","","",""
"null","null","html-keyboard-response","94","113347","0.0-94.0","","<div class=""circle set""></div>","set_on_1","","","",""
"null","null","html-keyboard-response","95","114850","0.0-95.0","","","set_gap","1500","","",""
"null","null","html-keyboard-response","96","115353","0.0-96.0","","<div class=""circle set""></div>","set_on_2","","","",""
"67"," ","html-keyboard-response","97","115421","0.0-97.0","","","go","1500","200","67","-133"
"null","null","html-keyboard-response","98","115922","0.0-98.0","","<div class=""circle""></div>","feedback_circle","","","",""
"null","null","html-keyboard-response","99","116925","0.0-99.0","","<p style=""font-size: 48px;"">+</p>","iti","","","",""
"null","null","html-keyboard-response","100","117427","0.0-100.0","","<div class=""circle ready""></div>","ready","","","",""
"null","null","html-keyboard-response","101","118610","0.0-101.0","","","isi","","","",""
"null","null","html-keyboard-response","102","119113","0.0-102.0","","<div class=""circle set""></div>","set_on_1","","","",""
"null","null","html-keyboard-response","103","119615","0.0-103.0","","","set_gap","500","","",""
"null","null","html-keyboard-response","104","120118","0.0-104.0","","<div class=""circle set""></div>","set_on_2","","","",""
"840"," ","html-keyboard-response","105","120958","0.0-105.0","","","go","500","1180","840","-340"
"null","null","html-keyboard-response","106","121459","0.0-106.0","","<div class=""circle""></div>","feedback_circle","","","",""
"null","null","html-keyboard-response","107","122462","0.0-107.0","","<p style=""font-size: 48px;"">+</p>","iti","","","",""
"null","null","html-keyboard-response","108","122963","0.0-108.0","","<div class=""circle ready""></div>","ready","","","",""
"null","null","html-keyboard-response","109","123166","0.0-109.0","","","isi","","","",""
"null","null","html-keyboard-response","110","123668","0.0-110.0","","<div class=""circle set""></div>","set_on_1","","","",""
"null","null","html-keyboard-response","111","125171","0.0-111.0","","","set_gap","1500","","",""
"null","null","html-keyboard-response","112","125673","0.0-112.0","","<div class=""circle set""></div>","set_on_2","","","",""
"294"," ","html-keyboard-response","113","125968","0.0-113.0","","","go","1500","200","294","94"
"null","null","html-keyboard-response","114","126470","0.0-114.0","","<div class=""circle""></div>","feedback_circle","","","",""
"null","null","html-keyboard-response","115","127472","0.0-115.0","","<p style=""font-size: 48px;"">+</p>","iti","","","",""
"null","null","html-keyboard-response","116","127974","0.0-116.0","","<div class=""circle ready""></div>","ready","","","",""
"null","null","html-keyboard-response","117","128177","0.0-117.0","","","isi","","","",""
"null","null","html-keyboard-response","118","128679","0.0-118.0","","<div class=""circle set""></div>","set_on_1","","","",""
"null","null","html-keyboard-response","119","130181","0.0-119.0","","","set_gap","1500","","",""
"null","null","html-keyboard-response","120","130684","0.0-120.0","","<div class=""circle set""></div>","set_on_2","","","",""
"241"," ","html-keyboard-response","121","130926","0.0-121.0","","","go","1500","200","241","41"
"null","null","html-keyboard-response","122","131428","0.0-122.0","","<div class=""circle""></div>","feedback_circle","","","",""
"null","null","html-keyboard-response","123","132430","0.0-123.0","","<p style=""font-size: 48px;"">+</p>","iti","","","",""
"null","null","html-keyboard-response","124","132933","0.0-124.0","","<div class=""circle ready""></div>","ready","","","",""
"null","null","html-keyboard-response","125","133786","0.0-125.0","","","isi","","","",""
"null","null","html-keyboard-response","126","134289","0.0-126.0","","<div class=""circle set""></div>","set_on_1","","","",""
"null","null","html-keyboard-response","127","135791","0.0-127.0","","","set_gap","1500","","",""
"null","null","html-keyboard-response","128","136294","0.0-128.0","","<div class=""circle set""></div>","set_on_2","","","",""
"731"," ","html-keyboard-response","129","137025","0.0-129.0","","","go","1500","850","731","-119"
"null","null","html-keyboard-response","130","137526","0.0-130.0","","<div class=""circle""></div>","feedback_circle","","","",""
"null","null","html-keyboard-response","131","138528","0.0-131.0","","<p style=""font-size: 48px;"">+</p>","iti","","","",""
"null","null","html-keyboard-response","132","139031","0.0-132.0","","<div class=""circle ready""></div>","ready","","","",""
"null","null","html-keyboard-response","133","139564","0.0-133.0","","","isi","","","",""
"null","null","html-keyboard-response","134","140066","0.0-134.0","","<div class=""circle set""></div>","set_on_1","","","",""
"null","null","html-keyboard-response","135","140568","0.0-135.0","","","set_gap","500","","",""
"null","null","html-keyboard-response","136","141070","0.0-136.0","","<div class=""circle set""></div>","set_on_2","","","",""
"400"," ","html-keyboard-response","137","141471","0.0-137.0","","","go","500","530","400","-130"
"null","null","html-keyboard-response","138","141973","0.0-138.0","","<div class=""circle""></div>","feedback_circle","","","",""
"null","null","html-keyboard-response","139","142975","0.0-139.0","","<p style=""font-size: 48px;"">+</p>","iti","","","",""
"null","null","html-keyboard-response","140","143477","0.0-140.0","","<div class=""circle ready""></div>","ready","","","",""
"null","null","html-keyboard-response","141","144660","0.0-141.0","","","isi","","","",""
"null","null","html-keyboard-response","142","145162","0.0-142.0","","<div class=""circle set""></div>","set_on_1","","","",""
"null","null","html-keyboard-response","143","146165","0.0-143.0","","","set_gap","1000","","",""
"null","null","html-keyboard-response","144","146668","0.0-144.0","","<div class=""circle set""></div>","set_on_2","","","",""
"822"," ","html-keyboard-response","145","147490","0.0-145.0","","","go","1000","1180","822","-358"
"null","null","html-keyboard-response","146","147992","0.0-146.0","","<div class=""circle""></div>","feedback_circle","","","",""
"null","null","html-keyboard-response","147","148994","0.0-147.0","","<p style=""font-size: 48px;"">+</p>","iti","","","",""
"null","null","html-keyboard-response","148","149497","0.0-148.0","","<div class=""circle ready""></div>","ready","","","",""
"null","null","html-keyboard-response","149","150029","0.0-149.0","","","isi","","","",""
"null","null","html-keyboard-response","150","150532","0.0-150.0","","<div class=""circle set""></div>","set_on_1","","","",""
"null","null","html-keyboard-response","151","152034","0.0-151.0","","","set_gap","1500","","",""
"null","null","html-keyboard-response","152","152537","0.0-152.0","","<div class=""circle set""></div>","set_on_2","","","",""
"666"," ","html-keyboard-response","153","153204","0.0-153.0","","","go","1500","530","666","136"
"null","null","html-keyboard-response","154","153705","0.0-154.0","","<div class=""circle""></div>","feedback_circle","","","",""
"null","null","html-keyboard-response","155","154707","0.0-155.0","","<p style=""font-size: 48px;"">+</p>","iti","","","",""
"null","null","html-keyboard-response","156","155210","0.0-156.0","","<div class=""circle ready""></div>","ready","","","",""
"null","null","html-keyboard-response","157","155412","0.0-157.0","","","isi","","","",""
"null","null","html-keyboard-response","158","155913","0.0-158.0","","<div class=""circle set""></div>","set_on_1","","","",""
"null","null","html-keyboard-response","159","156415","0.0-159.0","","","set_gap","500","","",""
"null","null","html-keyboard-response","160","156918","0.0-160.0","","<div class=""circle set""></div>","set_on_2","","","",""
"243"," ","html-keyboard-response","161","157162","0.0-161.0","","","go","500","200","243","43"
"null","null","html-keyboard-response","162","157663","0.0-162.0","","<div class=""circle""></div>","feedback_circle","","","",""
"null","null","html-keyboard-response","163","158665","0.0-163.0","","<p style=""font-size: 48px;"">+</p>","iti","","","",""
"null","null","html-keyboard-response","164","159167","0.0-164.0","","<div class=""circle ready""></div>","ready","","","",""
"null","null","html-keyboard-response","165","159370","0.0-165.0","","","isi","","","",""
"null","null","html-keyboard-response","166","159872","0.0-166.0","","<div class=""circle set""></div>","set_on_1","","","",""
"null","null","html-keyboard-response","167","161375","0.0-167.0","","","set_gap","1500","","",""
"null","null","html-keyboard-response","168","161877","0.0-168.0","","<div class=""circle set""></div>","set_on_2","","","",""
"560"," ","html-keyboard-response","169","162438","0.0-169.0","","","go","1500","200","560","360"
"null","null","html-keyboard-response","170","162940","0.0-170.0","","<div class=""circle""></div>","feedback_circle","","","",""
"null","null","html-keyboard-response","171","163943","0.0-171.0","","<p style=""font-size: 48px;"">+</p>","iti","","","",""
"null","null","html-keyboard-response","172","164446","0.0-172.0","","<div class=""circle ready""></div>","ready","","","",""
"null","null","html-keyboard-response","173","165299","0.0-173.0","","","isi","","","",""
"null","null","html-keyboard-response","174","165801","0.0-174.0","","<div class=""circle set""></div>","set_on_1","","","",""
"null","null","html-keyboard-response","175","167303","0.0-175.0","","","set_gap","1500","","",""
"null","null","html-keyboard-response","176","167806","0.0-176.0","","<div class=""circle set""></div>","set_on_2","","","",""
"1020"," ","html-keyboard-response","177","168826","0.0-177.0","","","go","1500","850","1020","170"
"null","null","html-keyboard-response","178","169328","0.0-178.0","","<div class=""circle""></div>","feedback_circle","","","",""
"null","null","html-keyboard-response","179","170330","0.0-179.0","","<p style=""font-size: 48px;"">+</p>","iti","","","",""
"null","null","html-keyboard-response","180","170833","0.0-180.0","","<div class=""circle ready""></div>","ready","","","",""
"null","null","html-keyboard-response","181","171365","0.0-181.0","","","isi","","","",""
"null","null","html-keyboard-response","182","171867","0.0-182.0","","<div class=""circle set""></div>","set_on_1","","","",""
"null","null","html-keyboard-response","183","172370","0.0-183.0","","","set_gap","500","","",""
"null","null","html-keyboard-response","184","172872","0.0-184.0","","<div class=""circle set""></div>","set_on_2","","","",""
"580"," ","html-keyboard-response","185","173452","0.0-185.0","","","go","500","530","580","50"
"null","null","html-keyboard-response","186","173954","0.0-186.0","","<div class=""circle""></div>","feedback_circle","","","",""
"null","null","html-keyboard-response","187","174957","0.0-187.0","","<p style=""font-size: 48px;"">+</p>","iti","","","",""
"null","null","html-keyboard-response","188","175459","0.0-188.0","","<div class=""circle ready""></div>","ready","","","",""
"null","null","html-keyboard-response","189","175661","0.0-189.0","","","isi","","","",""
"null","null","html-keyboard-response","190","176164","0.0-190.0","","<div class=""circle set""></div>","set_on_1","","","",""
"null","null","html-keyboard-response","191","177167","0.0-191.0","","","set_gap","1000","","",""
"null","null","html-keyboard-response","192","177669","0.0-192.0","","<div class=""circle set""></div>","set_on_2","","","",""
"275"," ","html-keyboard-response","193","177946","0.0-193.0","","","go","1000","200","275","75"
"null","null","html-keyboard-response","194","178448","0.0-194.0","","<div class=""circle""></div>","feedback_circle","","","",""
"null","null","html-keyboard-response","195","179450","0.0-195.0","","<p style=""font-size: 48px;"">+</p>","iti","","","",""
"null","null","html-keyboard-response","196","179952","0.0-196.0","","<div class=""circle ready""></div>","ready","","","",""
"null","null","html-keyboard-response","197","180485","0.0-197.0","","","isi","","","",""
"null","null","html-keyboard-response","198","180987","0.0-198.0","","<div class=""circle set""></div>","set_on_1","","","",""
"null","null","html-keyboard-response","199","181489","0.0-199.0","","","set_gap","500","","",""
"null","null","html-keyboard-response","200","181992","0.0-200.0","","<div class=""circle set""></div>","set_on_2","","","",""
"651"," ","html-keyboard-response","201","182643","0.0-201.0","","","go","500","530","651","121"
"null","null","html-keyboard-response","202","183144","0.0-202.0","","<div class=""circle""></div>","feedback_circle","","","",""
"null","null","html-keyboard-response","203","184147","0.0-203.0","","<p style=""font-size: 48px;"">+</p>","iti","","","",""
"null","null","html-keyboard-response","204","184649","0.0-204.0","","<div class=""circle ready""></div>","ready","","","",""
"null","null","html-keyboard-response","205","186152","0.0-205.0","","","isi","","","",""
"null","null","html-keyboard-response","206","186655","0.0-206.0","","<div class=""circle set""></div>","set_on_1","","","",""
"null","null","html-keyboard-response","207","187658","0.0-207.0","","","set_gap","1000","","",""
"null","null","html-keyboard-response","208","188159","0.0-208.0","","<div class=""circle set""></div>","set_on_2","","","",""
"1041"," ","html-keyboard-response","209","189201","0.0-209.0","","","go","1000","1500","1041","-459"
"null","null","html-keyboard-response","210","189702","0.0-210.0","","<div class=""circle""></div>","feedback_circle","","","",""
"null","null","html-keyboard-response","211","190704","0.0-211.0","","<p style=""font-size: 48px;"">+</p>","iti","","","",""
"null","null","html-keyboard-response","212","191206","0.0-212.0","","<div class=""circle ready""></div>","ready","","","",""
"null","null","html-keyboard-response","213","192389","0.0-213.0","","","isi","","","",""
"null","null","html-keyboard-response","214","192892","0.0-214.0","","<div class=""circle set""></div>","set_on_1","","","",""
"null","null","html-keyboard-response","215","193393","0.0-215.0","","","set_gap","500","","",""
"null","null","html-keyboard-response","216","193895","0.0-216.0","","<div class=""circle set""></div>","set_on_2","","","",""
"978"," ","html-keyboard-response","217","194874","0.0-217.0","","","go","500","1180","978","-202"
"null","null","html-keyboard-response","218","195375","0.0-218.0","","<div class=""circle""></div>","feedback_circle","","","",""
"null","null","html-keyboard-response","219","196377","0.0-219.0","","<p style=""font-size: 48px;"">+</p>","iti","","","",""
"null","null","html-keyboard-response","220","196880","0.0-220.0","","<div class=""circle ready""></div>","ready","","","",""
"null","null","html-keyboard-response","221","197733","0.0-221.0","","","isi","","","",""
"null","null","html-keyboard-response","222","198235","0.0-222.0","","<div class=""circle set""></div>","set_on_1","","","",""
"null","null","html-keyboard-response","223","199238","0.0-223.0","","","set_gap","1000","","",""
"null","null","html-keyboard-response","224","199740","0.0-224.0","","<div class=""circle set""></div>","set_on_2","","","",""
"998"," ","html-keyboard-response","225","200740","0.0-225.0","","","go","1000","850","998","148"
"null","null","html-keyboard-response","226","201241","0.0-226.0","","<div class=""circle""></div>","feedback_circle","","","",""
"null","null","html-keyboard-response","227","202244","0.0-227.0","","<p style=""font-size: 48px;"">+</p>","iti","","","",""
"null","null","html-keyboard-response","228","202746","0.0-228.0","","<div class=""circle ready""></div>","ready","","","",""
"null","null","html-keyboard-response","229","203279","0.0-229.0","","","isi","","","",""
"null","null","html-keyboard-response","230","203781","0.0-230.0","","<div class=""circle set""></div>","set_on_1","","","",""
"null","null","html-keyboard-response","231","205284","0.0-231.0","","","set_gap","1500","","",""
"null","null","html-keyboard-response","232","205787","0.0-232.0","","<div class=""circle set""></div>","set_on_2","","","",""
"387"," ","html-keyboard-response","233","206174","0.0-233.0","","","go","1500","530","387","-143"
"null","null","html-keyboard-response","234","206675","0.0-234.0","","<div class=""circle""></div>","feedback_circle","","","",""
"null","null","html-keyboard-response","235","207678","0.0-235.0","","<p style=""font-size: 48px;"">+</p>","iti","","","",""
"null","null","html-keyboard-response","236","208181","0.0-236.0","","<div class=""circle ready""></div>","ready","","","",""
"null","null","html-keyboard-response","237","209034","0.0-237.0","","","isi","","","",""
"null","null","html-keyboard-response","238","209536","0.0-238.0","","<div class=""circle set""></div>","set_on_1","","","",""
"null","null","html-keyboard-response","239","211038","0.0-239.0","","","set_gap","1500","","",""
"null","null","html-keyboard-response","240","211541","0.0-240.0","","<div class=""circle set""></div>","set_on_2","","","",""
"831"," ","html-keyboard-response","241","212372","0.0-241.0","","","go","1500","850","831","-19"
"null","null","html-keyboard-response","242","212873","0.0-242.0","","<div class=""circle""></div>","feedback_circle","","","",""
"null","null","html-keyboard-response","243","213875","0.0-243.0","","<p style=""font-size: 48px;"">+</p>","iti","","","",""
"null","null","html-keyboard-response","244","214378","0.0-244.0","","<div class=""circle ready""></div>","ready","","","",""
"null","null","html-keyboard-response","245","214580","0.0-245.0","","","isi","","","",""
"null","null","html-keyboard-response","246","215082","0.0-246.0","","<div class=""circle set""></div>","set_on_1","","","",""
"null","null","html-keyboard-response","247","216084","0.0-247.0","","","set_gap","1000","","",""
"null","null","html-keyboard-response","248","216587","0.0-248.0","","<div class=""circle set""></div>","set_on_2","","","",""
"134"," ","html-keyboard-response","249","216722","0.0-249.0","","","go","1000","200","134","-66"
"null","null","html-keyboard-response","250","217223","0.0-250.0","","<div class=""circle""></div>","feedback_circle","","","",""
"null","null","html-keyboard-response","251","218226","0.0-251.0","","<p style=""font-size: 48px;"">+</p>","iti","","","",""
"null","null","html-keyboard-response","252","218728","0.0-252.0","","<div class=""circle ready""></div>","ready","","","",""
"null","null","html-keyboard-response","253","219910","0.0-253.0","","","isi","","","",""
"null","null","html-keyboard-response","254","220413","0.0-254.0","","<div class=""circle set""></div>","set_on_1","","","",""
"null","null","html-keyboard-response","255","221915","0.0-255.0","","","set_gap","1500","","",""
"null","null","html-keyboard-response","256","222417","0.0-256.0","","<div class=""circle set""></div>","set_on_2","","","",""
"881"," ","html-keyboard-response","257","223299","0.0-257.0","","","go","1500","1180","881","-299"
"null","null","html-keyboard-response","258","223801","0.0-258.0","","<div class=""circle""></div>","feedback_circle","","","",""
"null","null","html-keyboard-response","259","224803","0.0-259.0","","<p style=""font-size: 48px;"">+</p>","iti","","","",""
"null","null","html-keyboard-response","260","225306","0.0-260.0","","<div class=""circle ready""></div>","ready","","","",""
"null","null","html-keyboard-response","261","225508","0.0-261.0","","","isi","","","",""
"null","null","html-keyboard-response","262","226011","0.0-262.0","","<div class=""circle set""></div>","set_on_1","","","",""
"null","null","html-keyboard-response","263","227514","0.0-263.0","","","set_gap","1500","","",""
"null","null","html-keyboard-response","264","228017","0.0-264.0","","<div class=""circle set""></div>","set_on_2","","","",""
"373"," ","html-keyboard-response","265","228390","0.0-265.0","","","go","1500","200","373","173"
"null","null","html-keyboard-response","266","228891","0.0-266.0","","<div class=""circle""></div>","feedback_circle","","","",""
"null","null","html-keyboard-response","267","229894","0.0-267.0","","<p style=""font-size: 48px;"">+</p>","iti","","","",""
"null","null","html-keyboard-response","268","230396","0.0-268.0","","<div class=""circle ready""></div>","ready","","","",""
"null","null","html-keyboard-response","269","230599","0.0-269.0","","","isi","","","",""
"null","null","html-keyboard-response","270","231102","0.0-270.0","","<div class=""circle set""></div>","set_on_1","","","",""
"null","null","html-keyboard-response","271","231604","0.0-271.0","","","set_gap","500","","",""
"null","null","html-keyboard-response","272","232107","0.0-272.0","","<div class=""circle set""></div>","set_on_2","","","",""
"838"," ","html-keyboard-response","273","232946","0.0-273.0","","","go","500","200","838","638"
"null","null","html-keyboard-response","274","233448","0.0-274.0","","<div class=""circle""></div>","feedback_circle","","","",""
"null","null","html-keyboard-response","275","234450","0.0-275.0","","<p style=""font-size: 48px;"">+</p>","iti","","","",""
"null","null","html-keyboard-response","276","234953","0.0-276.0","","<div class=""circle ready""></div>","ready","","","",""
"null","null","html-keyboard-response","277","235155","0.0-277.0","","","isi","","","",""
"null","null","html-keyboard-response","278","235657","0.0-278.0","","<div class=""circle set""></div>","set_on_1","","","",""
"null","null","html-keyboard-response","279","236160","0.0-279.0","","","set_gap","500","","",""
"null","null","html-keyboard-response","280","236663","0.0-280.0","","<div class=""circle set""></div>","set_on_2","","","",""
"321"," ","html-keyboard-response","281","236985","0.0-281.0","","","go","500","200","321","121"
"null","null","html-keyboard-response","282","237487","0.0-282.0","","<div class=""circle""></div>","feedback_circle","","","",""
"null","null","html-keyboard-response","283","238490","0.0-283.0","","<p style=""font-size: 48px;"">+</p>","iti","","","",""
"null","null","html-keyboard-response","284","238993","0.0-284.0","","<div class=""circle ready""></div>","ready","","","",""
"null","null","html-keyboard-response","285","239195","0.0-285.0","","","isi","","","",""
"null","null","html-keyboard-response","286","239698","0.0-286.0","","<div class=""circle set""></div>","set_on_1","","","",""
"null","null","html-keyboard-response","287","240200","0.0-287.0","","","set_gap","500","","",""
"null","null","html-keyboard-response","288","240702","0.0-288.0","","<div class=""circle set""></div>","set_on_2","","","",""
"316"," ","html-keyboard-response","289","241019","0.0-289.0","","","go","500","200","316","116"
"null","null","html-keyboard-response","290","241521","0.0-290.0","","<div class=""circle""></div>","feedback_circle","","","",""
"null","null","html-keyboard-response","291","242524","0.0-291.0","","<p style=""font-size: 48px;"">+</p>","iti","","","",""
"null","null","html-keyboard-response","292","243027","0.0-292.0","","<div class=""circle ready""></div>","ready","","","",""
"null","null","html-keyboard-response","293","243879","0.0-293.0","","","isi","","","",""
"null","null","html-keyboard-response","294","244382","0.0-294.0","","<div class=""circle set""></div>","set_on_1","","","",""
"null","null","html-keyboard-response","295","244883","0.0-295.0","","","set_gap","500","","",""
"null","null","html-keyboard-response","296","245386","0.0-296.0","","<div class=""circle set""></div>","set_on_2","","","",""
"898"," ","html-keyboard-response","297","246285","0.0-297.0","","","go","500","850","898","48"
"null","null","html-keyboard-response","298","246787","0.0-298.0","","<div class=""circle""></div>","feedback_circle","","","",""
"null","null","html-keyboard-response","299","247790","0.0-299.0","","<p style=""font-size: 48px;"">+</p>","iti","","","",""
"null","null","html-keyboard-response","300","248292","0.0-300.0","","<div class=""circle ready""></div>","ready","","","",""
"null","null","html-keyboard-response","301","249475","0.0-301.0","","","isi","","","",""
"null","null","html-keyboard-response","302","249977","0.0-302.0","","<div class=""circle set""></div>","set_on_1","","","",""
"null","null","html-keyboard-response","303","251480","0.0-303.0","","","set_gap","1500","","",""
"null","null","html-keyboard-response","304","251982","0.0-304.0","","<div class=""circle set""></div>","set_on_2","","","",""
"1142"," ","html-keyboard-response","305","253126","0.0-305.0","","","go","1500","1180","1142","-38"
"null","null","html-keyboard-response","306","253627","0.0-306.0","","<div class=""circle""></div>","feedback_circle","","","",""
"null","null","html-keyboard-response","307","254630","0.0-307.0","","<p style=""font-size: 48px;"">+</p>","iti","","","",""
"null","null","html-keyboard-response","308","255132","0.0-308.0","","<div class=""circle ready""></div>","ready","","","",""
"null","null","html-keyboard-response","309","256635","0.0-309.0","","","isi","","","",""
"null","null","html-keyboard-response","310","257138","0.0-310.0","","<div class=""circle set""></div>","set_on_1","","","",""
"null","null","html-keyboard-response","311","258640","0.0-311.0","","","set_gap","1500","","",""
"null","null","html-keyboard-response","312","259142","0.0-312.0","","<div class=""circle set""></div>","set_on_2","","","",""
"1010"," ","html-keyboard-response","313","260152","0.0-313.0","","","go","1500","1500","1010","-490"
"null","null","html-keyboard-response","314","260654","0.0-314.0","","<div class=""circle""></div>","feedback_circle","","","",""
"null","null","html-keyboard-response","315","261656","0.0-315.0","","<p style=""font-size: 48px;"">+</p>","iti","","","",""
"null","null","html-keyboard-response","316","262159","0.0-316.0","","<div class=""circle ready""></div>","ready","","","",""
"null","null","html-keyboard-response","317","262361","0.0-317.0","","","isi","","","",""
"null","null","html-keyboard-response","318","262863","0.0-318.0","","<div class=""circle set""></div>","set_on_1","","","",""
"null","null","html-keyboard-response","319","263366","0.0-319.0","","","set_gap","500","","",""
"null","null","html-keyboard-response","320","263868","0.0-320.0","","<div class=""circle set""></div>","set_on_2","","","",""
"288"," ","html-keyboard-response","321","264157","0.0-321.0","","","go","500","200","288","88"
"null","null","html-keyboard-response","322","264659","0.0-322.0","","<div class=""circle""></div>","feedback_circle","","","",""
"null","null","html-keyboard-response","323","265661","0.0-323.0","","<p style=""font-size: 48px;"">+</p>","iti","","","",""
"null","null","html-keyboard-response","324","266164","0.0-324.0","","<div class=""circle ready""></div>","ready","","","",""
"null","null","html-keyboard-response","325","267666","0.0-325.0","","","isi","","","",""
"null","null","html-keyboard-response","326","268168","0.0-326.0","","<div class=""circle set""></div>","set_on_1","","","",""
"null","null","html-keyboard-response","327","268670","0.0-327.0","","","set_gap","500","","",""
"null","null","html-keyboard-response","328","269172","0.0-328.0","","<div class=""circle set""></div>","set_on_2","","","",""
"1071"," ","html-keyboard-response","329","270244","0.0-329.0","","","go","500","1500","1071","-429"
"null","null","html-keyboard-response","330","270746","0.0-330.0","","<div class=""circle""></div>","feedback_circle","","","",""
"null","null","html-keyboard-response","331","271748","0.0-331.0","","<p style=""font-size: 48px;"">+</p>","iti","","","",""
"null","null","html-keyboard-response","332","272249","0.0-332.0","","<div class=""circle ready""></div>","ready","","","",""
"null","null","html-keyboard-response","333","272782","0.0-333.0","","","isi","","","",""
"null","null","html-keyboard-response","334","273284","0.0-334.0","","<div class=""circle set""></div>","set_on_1","","","",""
"null","null","html-keyboard-response","335","274286","0.0-335.0","","","set_gap","1000","","",""
"null","null","html-keyboard-response","336","274789","0.0-336.0","","<div class=""circle set""></div>","set_on_2","","","",""
"454"," ","html-keyboard-response","337","275244","0.0-337.0","","","go","1000","530","454","-76"
"null","null","html-keyboard-response","338","275746","0.0-338.0","","<div class=""circle""></div>","feedback_circle","","","",""
"null","null","html-keyboard-response","339","276749","0.0-339.0","","<p style=""font-size: 48px;"">+</p>","iti","","","",""
"null","null","html-keyboard-response","340","277251","0.0-340.0","","<div class=""circle ready""></div>","ready","","","",""
"null","null","html-keyboard-response","341","278434","0.0-341.0","","","isi","","","",""
"null","null","html-keyboard-response","342","278936","0.0-342.0","","<div class=""circle set""></div>","set_on_1","","","",""
"null","null","html-keyboard-response","343","279939","0.0-343.0","","","set_gap","1000","","",""
"null","null","html-keyboard-response","344","280442","0.0-344.0","","<div class=""circle set""></div>","set_on_2","","","",""
"779"," ","html-keyboard-response","345","281222","0.0-345.0","","","go","1000","1180","779","-401"
"null","null","html-keyboard-response","346","281723","0.0-346.0","","<div class=""circle""></div>","feedback_circle","","","",""
"null","null","html-keyboard-response","347","282726","0.0-347.0","","<p style=""font-size: 48px;"">+</p>","iti","","","",""
"null","null","html-keyboard-response","348","283228","0.0-348.0","","<div class=""circle ready""></div>","ready","","","",""
"null","null","html-keyboard-response","349","284731","0.0-349.0","","","isi","","","",""
"null","null","html-keyboard-response","350","285233","0.0-350.0","","<div class=""circle set""></div>","set_on_1","","","",""
"null","null","html-keyboard-response","351","286236","0.0-351.0","","","set_gap","1000","","",""
"null","null","html-keyboard-response","352","286738","0.0-352.0","","<div class=""circle set""></div>","set_on_2","","","",""
"1367"," ","html-keyboard-response","353","288105","0.0-353.0","","","go","1000","1500","1367","-133"
"null","null","html-keyboard-response","354","288607","0.0-354.0","","<div class=""circle""></div>","feedback_circle","","","",""
"null","null","html-keyboard-response","355","289609","0.0-355.0","","<p style=""font-size: 48px;"">+</p>","iti","","","",""
"null","null","html-keyboard-response","356","290111","0.0-356.0","","<div class=""circle ready""></div>","ready","","","",""
"null","null","html-keyboard-response","357","290644","0.0-357.0","","","isi","","","",""
"null","null","html-keyboard-response","358","291146","0.0-358.0","","<div class=""circle set""></div>","set_on_1","","","",""
"null","null","html-keyboard-response","359","292648","0.0-359.0","","","set_gap","1500","","",""
"null","null","html-keyboard-response","360","293151","0.0-360.0","","<div class=""circle set""></div>","set_on_2","","","",""
"379"," ","html-keyboard-response","361","293532","0.0-361.0","","","go","1500","530","379","-151"
"null","null","html-keyboard-response","362","294034","0.0-362.0","","<div class=""circle""></div>","feedback_circle","","","",""
"null","null","html-keyboard-response","363","295036","0.0-363.0","","<p style=""font-size: 48px;"">+</p>","iti","","","",""
"null","null","html-keyboard-response","364","295539","0.0-364.0","","<div class=""circle ready""></div>","ready","","","",""
"null","null","html-keyboard-response","365","297042","0.0-365.0","","","isi","","","",""
"null","null","html-keyboard-response","366","297544","0.0-366.0","","<div class=""circle set""></div>","set_on_1","","","",""
"null","null","html-keyboard-response","367","299047","0.0-367.0","","","set_gap","1500","","",""
"null","null","html-keyboard-response","368","299549","0.0-368.0","","<div class=""circle set""></div>","set_on_2","","","",""
"1533"," ","html-keyboard-response","369","301083","0.0-369.0","","","go","1500","1500","1533","33"
"null","null","html-keyboard-response","370","301585","0.0-370.0","","<div class=""circle""></div>","feedback_circle","","","",""
"null","null","html-keyboard-response","371","302588","0.0-371.0","","<p style=""font-size: 48px;"">+</p>","iti","","","",""
"null","null","html-keyboard-response","372","303090","0.0-372.0","","<div class=""circle ready""></div>","ready","","","",""
"null","null","html-keyboard-response","373","303292","0.0-373.0","","","isi","","","",""
"null","null","html-keyboard-response","374","303795","0.0-374.0","","<div class=""circle set""></div>","set_on_1","","","",""
"null","null","html-keyboard-response","375","304797","0.0-375.0","","","set_gap","1000","","",""
"null","null","html-keyboard-response","376","305299","0.0-376.0","","<div class=""circle set""></div>","set_on_2","","","",""
"278"," ","html-keyboard-response","377","305578","0.0-377.0","","","go","1000","200","278","78"
"null","null","html-keyboard-response","378","306079","0.0-378.0","","<div class=""circle""></div>","feedback_circle","","","",""
"null","null","html-keyboard-response","379","307082","0.0-379.0","","<p style=""font-size: 48px;"">+</p>","iti","","","",""
"null","null","html-keyboard-response","380","307585","0.0-380.0","","<div class=""circle ready""></div>","ready","","","",""
"null","null","html-keyboard-response","381","308117","0.0-381.0","","","isi","","","",""
"null","null","html-keyboard-response","382","308619","0.0-382.0","","<div class=""circle set""></div>","set_on_1","","","",""
"null","null","html-keyboard-response","383","310122","0.0-383.0","","","set_gap","1500","","",""
"null","null","html-keyboard-response","384","310624","0.0-384.0","","<div class=""circle set""></div>","set_on_2","","","",""
"468"," ","html-keyboard-response","385","311092","0.0-385.0","","","go","1500","530","468","-62"
"null","null","html-keyboard-response","386","311594","0.0-386.0","","<div class=""circle""></div>","feedback_circle","","","",""
"null","null","html-keyboard-response","387","312597","0.0-387.0","","<p style=""font-size: 48px;"">+</p>","iti","","","",""
"null","null","html-keyboard-response","388","313100","0.0-388.0","","<div class=""circle ready""></div>","ready","","","",""
"null","null","html-keyboard-response","389","313633","0.0-389.0","","","isi","","","",""
"null","null","html-keyboard-response","390","314135","0.0-390.0","","<div class=""circle set""></div>","set_on_1","","","",""
"null","null","html-keyboard-response","391","314638","0.0-391.0","","","set_gap","500","","",""
"null","null","html-keyboard-response","392","315140","0.0-392.0","","<div class=""circle set""></div>","set_on_2","","","",""
"445"," ","html-keyboard-response","393","315585","0.0-393.0","","","go","500","530","445","-85"
"null","null","html-keyboard-response","394","316087","0.0-394.0","","<div class=""circle""></div>","feedback_circle","","","",""
"null","null","html-keyboard-response","395","317089","0.0-395.0","","<p style=""font-size: 48px;"">+</p>","iti","","","",""
"null","null","html-keyboard-response","396","317592","0.0-396.0","","<div class=""circle ready""></div>","ready","","","",""
"null","null","html-keyboard-response","397","318124","0.0-397.0","","","isi","","","",""
"null","null","html-keyboard-response","398","318627","0.0-398.0","","<div class=""circle set""></div>","set_on_1","","","",""
"null","null","html-keyboard-response","399","319630","0.0-399.0","","","set_gap","1000","","",""
"null","null","html-keyboard-response","400","320132","0.0-400.0","","<div class=""circle set""></div>","set_on_2","","","",""
"439"," ","html-keyboard-response","401","320572","0.0-401.0","","","go","1000","530","439","-91"
"null","null","html-keyboard-response","402","321074","0.0-402.0","","<div class=""circle""></div>","feedback_circle","","","",""
"null","null","html-keyboard-response","403","322076","0.0-403.0","","<p style=""font-size: 48px;"">+</p>","iti","","","",""
"null","null","html-keyboard-response","404","322579","0.0-404.0","","<div class=""circle ready""></div>","ready","","","",""
"null","null","html-keyboard-response","405","323432","0.0-405.0","","","isi","","","",""
"null","null","html-keyboard-response","406","323935","0.0-406.0","","<div class=""circle set""></div>","set_on_1","","","",""
"null","null","html-keyboard-response","407","325437","0.0-407.0","","","set_gap","1500","","",""
"null","null","html-keyboard-response","408","325939","0.0-408.0","","<div class=""circle set""></div>","set_on_2","","","",""
"490"," ","html-keyboard-response","409","326430","0.0-409.0","","","go","1500","850","490","-360"
"null","null","html-keyboard-response","410","326931","0.0-410.0","","<div class=""circle""></div>","feedback_circle","","","",""
"null","null","html-keyboard-response","411","327933","0.0-411.0","","<p style=""font-size: 48px;"">+</p>","iti","","","",""
"null","null","html-keyboard-response","412","328436","0.0-412.0","","<div class=""circle ready""></div>","ready","","","",""
"null","null","html-keyboard-response","413","328968","0.0-413.0","","","isi","","","",""
"null","null","html-keyboard-response","414","329471","0.0-414.0","","<div class=""circle set""></div>","set_on_1","","","",""
"null","null","html-keyboard-response","415","330972","0.0-415.0","","","set_gap","1500","","",""
"null","null","html-keyboard-response","416","331475","0.0-416.0","","<div class=""circle set""></div>","set_on_2","","","",""
"421"," ","html-keyboard-response","417","331897","0.0-417.0","","","go","1500","530","421","-109"
"null","null","html-keyboard-response","418","332399","0.0-418.0","","<div class=""circle""></div>","feedback_circle","","","",""
"null","null","html-keyboard-response","419","333401","0.0-419.0","","<p style=""font-size: 48px;"">+</p>","iti","","","",""
"null","null","html-keyboard-response","420","333903","0.0-420.0","","<div class=""circle ready""></div>","ready","","","",""
"null","null","html-keyboard-response","421","335086","0.0-421.0","","","isi","","","",""
"null","null","html-keyboard-response","422","335588","0.0-422.0","","<div class=""circle set""></div>","set_on_1","","","",""
"null","null","html-keyboard-response","423","336591","0.0-423.0","","","set_gap","1000","","",""
"null","null","html-keyboard-response","424","337093","0.0-424.0","","<div class=""circle set""></div>","set_on_2","","","",""
"1086"," ","html-keyboard-response","425","338180","0.0-425.0","","","go","1000","1180","1086","-94"
"null","null","html-keyboard-response","426","338682","0.0-426.0","","<div class=""circle""></div>","feedback_circle","","","",""
"null","null","html-keyboard-response","427","339684","0.0-427.0","","<p style=""font-size: 48px;"">+</p>","iti","","","",""
"null","null","html-keyboard-response","428","340186","0.0-428.0","","<div class=""circle ready""></div>","ready","","","",""
"null","null","html-keyboard-response","429","340718","0.0-429.0","","","isi","","","",""
"null","null","html-keyboard-response","430","341220","0.0-430.0","","<div class=""circle set""></div>","set_on_1","","","",""
"null","null","html-keyboard-response","431","342223","0.0-431.0","","","set_gap","1000","","",""
"null","null","html-keyboard-response","432","342725","0.0-432.0","","<div class=""circle set""></div>","set_on_2","","","",""
"1187"," ","html-keyboard-response","433","343912","0.0-433.0","","","go","1000","530","1187","657"
"null","null","html-keyboard-response","434","344414","0.0-434.0","","<div class=""circle""></div>","feedback_circle","","","",""
"null","null","html-keyboard-response","435","345416","0.0-435.0","","<p style=""font-size: 48px;"">+</p>","iti","","","",""
"null","null","html-keyboard-response","436","345919","0.0-436.0","","<div class=""circle ready""></div>","ready","","","",""
"null","null","html-keyboard-response","437","347101","0.0-437.0","","","isi","","","",""
"null","null","html-keyboard-response","438","347604","0.0-438.0","","<div class=""circle set""></div>","set_on_1","","","",""
"null","null","html-keyboard-response","439","348606","0.0-439.0","","","set_gap","1000","","",""
"null","null","html-keyboard-response","440","349109","0.0-440.0","","<div class=""circle set""></div>","set_on_2","","","",""
"1056"," ","html-keyboard-response","441","350166","0.0-441.0","","","go","1000","1180","1056","-124"
"null","null","html-keyboard-response","442","350667","0.0-442.0","","<div class=""circle""></div>","feedback_circle","","","",""
"null","null","html-keyboard-response","443","351668","0.0-443.0","","<p style=""font-size: 48px;"">+</p>","iti","","","",""
"null","null","html-keyboard-response","444","352171","0.0-444.0","","<div class=""circle ready""></div>","ready","","","",""
"null","null","html-keyboard-response","445","353673","0.0-445.0","","","isi","","","",""
"null","null","html-keyboard-response","446","354175","0.0-446.0","","<div class=""circle set""></div>","set_on_1","","","",""
"null","null","html-keyboard-response","447","354677","0.0-447.0","","","set_gap","500","","",""
"null","null","html-keyboard-response","448","355180","0.0-448.0","","<div class=""circle set""></div>","set_on_2","","","",""
"1048"," ","html-keyboard-response","449","356228","0.0-449.0","","","go","500","1500","1048","-452"
"null","null","html-keyboard-response","450","356730","0.0-450.0","","<div class=""circle""></div>","feedback_circle","","","",""
"null","null","html-keyboard-response","451","357732","0.0-451.0","","<p style=""font-size: 48px;"">+</p>","iti","","","",""
"null","null","html-keyboard-response","452","358235","0.0-452.0","","<div class=""circle ready""></div>","ready","","","",""
"null","null","html-keyboard-response","453","359087","0.0-453.0","","","isi","","","",""
"null","null","html-keyboard-response","454","359589","0.0-454.0","","<div class=""circle set""></div>","set_on_1","","","",""
"null","null","html-keyboard-response","455","360092","0.0-455.0","","","set_gap","500","","",""
"null","null","html-keyboard-response","456","360594","0.0-456.0","","<div class=""circle set""></div>","set_on_2","","","",""
"637"," ","html-keyboard-response","457","361232","0.0-457.0","","","go","500","850","637","-213"
"null","null","html-keyboard-response","458","361734","0.0-458.0","","<div class=""circle""></div>","feedback_circle","","","",""
"null","null","html-keyboard-response","459","362736","0.0-459.0","","<p style=""font-size: 48px;"">+</p>","iti","","","",""
"null","null","html-keyboard-response","460","363238","0.0-460.0","","<div class=""circle ready""></div>","ready","","","",""
"null","null","html-keyboard-response","461","364091","0.0-461.0","","","isi","","","",""
"null","null","html-keyboard-response","462","364594","0.0-462.0","","<div class=""circle set""></div>","set_on_1","","","",""
"null","null","html-keyboard-response","463","365596","0.0-463.0","","","set_gap","1000","","",""
"null","null","html-keyboard-response","464","366099","0.0-464.0","","<div class=""circle set""></div>","set_on_2","","","",""
"897"," ","html-keyboard-response","465","366997","0.0-465.0","","","go","1000","850","897","47"
"null","null","html-keyboard-response","466","367498","0.0-466.0","","<div class=""circle""></div>","feedback_circle","","","",""
"null","null","html-keyboard-response","467","368501","0.0-467.0","","<p style=""font-size: 48px;"">+</p>","iti","","","",""
"null","null","html-keyboard-response","468","369003","0.0-468.0","","<div class=""circle ready""></div>","ready","","","",""
"null","null","html-keyboard-response","469","369205","0.0-469.0","","","isi","","","",""
"null","null","html-keyboard-response","470","369708","0.0-470.0","","<div class=""circle set""></div>","set_on_1","","","",""
"null","null","html-keyboard-response","471","371211","0.0-471.0","","","set_gap","1500","","",""
"null","null","html-keyboard-response","472","371714","0.0-472.0","","<div class=""circle set""></div>","set_on_2","","","",""
"221"," ","html-keyboard-response","473","371935","0.0-473.0","","","go","1500","200","221","21"
"null","null","html-keyboard-response","474","372437","0.0-474.0","","<div class=""circle""></div>","feedback_circle","","","",""
"null","null","html-keyboard-response","475","373440","0.0-475.0","","<p style=""font-size: 48px;"">+</p>","iti","","","",""
"null","null","html-keyboard-response","476","373942","0.0-476.0","","<div class=""circle ready""></div>","ready","","","",""
"null","null","html-keyboard-response","477","375445","0.0-477.0","","","isi","","","",""
"null","null","html-keyboard-response","478","375947","0.0-478.0","","<div class=""circle set""></div>","set_on_1","","","",""
"null","null","html-keyboard-response","479","376949","0.0-479.0","","","set_gap","1000","","",""
"null","null","html-keyboard-response","480","377450","0.0-480.0","","<div class=""circle set""></div>","set_on_2","","","",""
"1461"," ","html-keyboard-response","481","378911","0.0-481.0","","","go","1000","1500","1461","-39"
"null","null","html-keyboard-response","482","379413","0.0-482.0","","<div class=""circle""></div>","feedback_circle","","","",""
"null","null","html-keyboard-response","483","380416","0.0-483.0","","<p style=""font-size: 48px;"">+</p>","iti","","","",""
"null","null","html-keyboard-response","484","380918","0.0-484.0","","<div class=""circle ready""></div>","ready","","","",""
"null","null","html-keyboard-response","485","381770","0.0-485.0","","","isi","","","",""
"null","null","html-keyboard-response","486","382272","0.0-486.0","","<div class=""circle set""></div>","set_on_1","","","",""
"null","null","html-keyboard-response","487","383274","0.0-487.0","","","set_gap","1000","","",""
"null","null","html-keyboard-response","488","383777","0.0-488.0","","<div class=""circle set""></div>","set_on_2","","","",""
"657"," ","html-keyboard-response","489","384435","0.0-489.0","","","go","1000","850","657","-193"
"null","null","html-keyboard-response","490","384937","0.0-490.0","","<div class=""circle""></div>","feedback_circle","","","",""
"null","null","html-keyboard-response","491","385939","0.0-491.0","","<p style=""font-size: 48px;"">+</p>","iti","","","",""
"null","null","html-keyboard-response","492","386442","0.0-492.0","","<div class=""circle ready""></div>","ready","","","",""
"null","null","html-keyboard-response","493","387625","0.0-493.0","","","isi","","","",""
"null","null","html-keyboard-response","494","388128","0.0-494.0","","<div class=""circle set""></div>","set_on_1","","","",""
"null","null","html-keyboard-response","495","389130","0.0-495.0","","","set_gap","1000","","",""
"null","null","html-keyboard-response","496","389633","0.0-496.0","","<div class=""circle set""></div>","set_on_2","","","",""
"1328"," ","html-keyboard-response","497","390962","0.0-497.0","","","go","1000","1180","1328","148"
"null","null","html-keyboard-response","498","391463","0.0-498.0","","<div class=""circle""></div>","feedback_circle","","","",""
"null","null","html-keyboard-response","499","392465","0.0-499.0","","<p style=""font-size: 48px;"">+</p>","iti","","","",""
"null","null","html-keyboard-response","500","392968","0.0-500.0","","<div class=""circle ready""></div>","ready","","","",""
"null","null","html-keyboard-response","501","393501","0.0-501.0","","","isi","","","",""
"null","null","html-keyboard-response","502","394004","0.0-502.0","","<div class=""circle set""></div>","set_on_1","","","",""
"null","null","html-keyboard-response","503","395506","0.0-503.0","","","set_gap","1500","","",""
"null","null","html-keyboard-response","504","396009","0.0-504.0","","<div class=""circle set""></div>","set_on_2","","","",""
"703"," ","html-keyboard-response","505","396712","0.0-505.0","","","go","1500","530","703","173"
"null","null","html-keyboard-response","506","397213","0.0-506.0","","<div class=""circle""></div>","feedback_circle","","","",""
"null","null","html-keyboard-response","507","398216","0.0-507.0","","<p style=""font-size: 48px;"">+</p>","iti","","","",""
"null","null","html-keyboard-response","508","398718","0.0-508.0","","<div class=""circle ready""></div>","ready","","","",""
"null","null","html-keyboard-response","509","398920","0.0-509.0","","","isi","","","",""
"null","null","html-keyboard-response","510","399422","0.0-510.0","","<div class=""circle set""></div>","set_on_1","","","",""
"null","null","html-keyboard-response","511","400925","0.0-511.0","","","set_gap","1500","","",""
"null","null","html-keyboard-response","512","401427","0.0-512.0","","<div class=""circle set""></div>","set_on_2","","","",""
"442"," ","html-keyboard-response","513","401869","0.0-513.0","","","go","1500","200","442","242"
"null","null","html-keyboard-response","514","402370","0.0-514.0","","<div class=""circle""></div>","feedback_circle","","","",""
"null","null","html-keyboard-response","515","403372","0.0-515.0","","<p style=""font-size: 48px;"">+</p>","iti","","","",""
"null","null","html-keyboard-response","516","403875","0.0-516.0","","<div class=""circle ready""></div>","ready","","","",""
"null","null","html-keyboard-response","517","405377","0.0-517.0","","","isi","","","",""
"null","null","html-keyboard-response","518","405880","0.0-518.0","","<div class=""circle set""></div>","set_on_1","","","",""
"null","null","html-keyboard-response","519","406882","0.0-519.0","","","set_gap","1000","","",""
"null","null","html-keyboard-response","520","407383","0.0-520.0","","<div class=""circle set""></div>","set_on_2","","","",""
"1089"," ","html-keyboard-response","521","408473","0.0-521.0","","","go","1000","1500","1089","-411"
"null","null","html-keyboard-response","522","408975","0.0-522.0","","<div class=""circle""></div>","feedback_circle","","","",""
"null","null","html-keyboard-response","523","409978","0.0-523.0","","<p style=""font-size: 48px;"">+</p>","iti","","","",""
"null","null","html-keyboard-response","524","410479","0.0-524.0","","<div class=""circle ready""></div>","ready","","","",""
"null","null","html-keyboard-response","525","411981","0.0-525.0","","","isi","","","",""
"null","null","html-keyboard-response","526","412484","0.0-526.0","","<div class=""circle set""></div>","set_on_1","","","",""
"null","null","html-keyboard-response","527","413487","0.0-527.0","","","set_gap","1000","","",""
"null","null","html-keyboard-response","528","413988","0.0-528.0","","<div class=""circle set""></div>","set_on_2","","","",""
"1301"," ","html-keyboard-response","529","415290","0.0-529.0","","","go","1000","1500","1301","-199"
"null","null","html-keyboard-response","530","415791","0.0-530.0","","<div class=""circle""></div>","feedback_circle","","","",""
"null","null","html-keyboard-response","531","416794","0.0-531.0","","<p style=""font-size: 48px;"">+</p>","iti","","","",""
"null","null","html-keyboard-response","532","417296","0.0-532.0","","<div class=""circle ready""></div>","ready","","","",""
"null","null","html-keyboard-response","533","418798","0.0-533.0","","","isi","","","",""
"null","null","html-keyboard-response","534","419301","0.0-534.0","","<div class=""circle set""></div>","set_on_1","","","",""
"null","null","html-keyboard-response","535","420803","0.0-535.0","","","set_gap","1500","","",""
"null","null","html-keyboard-response","536","421305","0.0-536.0","","<div class=""circle set""></div>","set_on_2","","","",""
"1355"," ","html-keyboard-response","537","422661","0.0-537.0","","","go","1500","1500","1355","-145"
"null","null","html-keyboard-response","538","423162","0.0-538.0","","<div class=""circle""></div>","feedback_circle","","","",""
"null","null","html-keyboard-response","539","424165","0.0-539.0","","<p style=""font-size: 48px;"">+</p>","iti","","","",""
"null","null","html-keyboard-response","540","424667","0.0-540.0","","<div class=""circle ready""></div>","ready","","","",""
"null","null","html-keyboard-response","541","425520","0.0-541.0","","","isi","","","",""
"null","null","html-keyboard-response","542","426022","0.0-542.0","","<div class=""circle set""></div>","set_on_1","","","",""
"null","null","html-keyboard-response","543","427024","0.0-543.0","","","set_gap","1000","","",""
"null","null","html-keyboard-response","544","427526","0.0-544.0","","<div class=""circle set""></div>","set_on_2","","","",""
"1181"," ","html-keyboard-response","545","428708","0.0-545.0","","","go","1000","850","1181","331"
"null","null","html-keyboard-response","546","429209","0.0-546.0","","<div class=""circle""></div>","feedback_circle","","","",""
"null","null","html-keyboard-response","547","430212","0.0-547.0","","<p style=""font-size: 48px;"">+</p>","iti","","","",""
"null","null","html-keyboard-response","548","430715","0.0-548.0","","<div class=""circle ready""></div>","ready","","","",""
"null","null","html-keyboard-response","549","431897","0.0-549.0","","","isi","","","",""
"null","null","html-keyboard-response","550","432399","0.0-550.0","","<div class=""circle set""></div>","set_on_1","","","",""
"null","null","html-keyboard-response","551","433401","0.0-551.0","","","set_gap","1000","","",""
"null","null","html-keyboard-response","552","433904","0.0-552.0","","<div class=""circle set""></div>","set_on_2","","","",""
"1244"," ","html-keyboard-response","553","435148","0.0-553.0","","","go","1000","1180","1244","64"
"null","null","html-keyboard-response","554","435650","0.0-554.0","","<div class=""circle""></div>","feedback_circle","","","",""
"null","null","html-keyboard-response","555","436652","0.0-555.0","","<p style=""font-size: 48px;"">+</p>","iti","","","",""
"null","null","html-keyboard-response","556","437155","0.0-556.0","","<div class=""circle ready""></div>","ready","","","",""
"null","null","html-keyboard-response","557","438338","0.0-557.0","","","isi","","","",""
"null","null","html-keyboard-response","558","438840","0.0-558.0","","<div class=""circle set""></div>","set_on_1","","","",""
"null","null","html-keyboard-response","559","439342","0.0-559.0","","","set_gap","500","","",""
"null","null","html-keyboard-response","560","439845","0.0-560.0","","<div class=""circle set""></div>","set_on_2","","","",""
"1169"," ","html-keyboard-response","561","441015","0.0-561.0","","","go","500","1180","1169","-11"
"null","null","html-keyboard-response","562","441516","0.0-562.0","","<div class=""circle""></div>","feedback_circle","","","",""
"null","null","html-keyboard-response","563","442519","0.0-563.0","","<p style=""font-size: 48px;"">+</p>","iti","","","",""
"null","null","html-keyboard-response","564","443020","0.0-564.0","","<div class=""circle ready""></div>","ready","","","",""
"null","null","html-keyboard-response","565","444523","0.0-565.0","","","isi","","","",""
"null","null","html-keyboard-response","566","445025","0.0-566.0","","<div class=""circle set""></div>","set_on_1","","","",""
"null","null","html-keyboard-response","567","446528","0.0-567.0","","","set_gap","1500","","",""
"null","null","html-keyboard-response","568","447030","0.0-568.0","","<div class=""circle set""></div>","set_on_2","","","",""
"1276"," ","html-keyboard-response","569","448307","0.0-569.0","","","go","1500","1500","1276","-224"
"null","null","html-keyboard-response","570","448809","0.0-570.0","","<div class=""circle""></div>","feedback_circle","","","",""
"null","null","html-keyboard-response","571","449812","0.0-571.0","","<p style=""font-size: 48px;"">+</p>","iti","","","",""
"null","null","html-keyboard-response","572","450314","0.0-572.0","","<div class=""circle ready""></div>","ready","","","",""
"null","null","html-keyboard-response","573","450846","0.0-573.0","","","isi","","","",""
"null","null","html-keyboard-response","574","451348","0.0-574.0","","<div class=""circle set""></div>","set_on_1","","","",""
"null","null","html-keyboard-response","575","452850","0.0-575.0","","","set_gap","1500","","",""
"null","null","html-keyboard-response","576","453353","0.0-576.0","","<div class=""circle set""></div>","set_on_2","","","",""
"825"," ","html-keyboard-response","577","454179","0.0-577.0","","","go","1500","530","825","295"
"null","null","html-keyboard-response","578","454680","0.0-578.0","","<div class=""circle""></div>","feedback_circle","","","",""
"null","null","html-keyboard-response","579","455683","0.0-579.0","","<p style=""font-size: 48px;"">+</p>","iti","","","",""
"null","null","html-keyboard-response","580","456185","0.0-580.0","","<div class=""circle ready""></div>","ready","","","",""
"null","null","html-keyboard-response","581","457038","0.0-581.0","","","isi","","","",""
"null","null","html-keyboard-response","582","457541","0.0-582.0","","<div class=""circle set""></div>","set_on_1","","","",""
"null","null","html-keyboard-response","583","458542","0.0-583.0","","","set_gap","1000","","",""
"null","null","html-keyboard-response","584","459043","0.0-584.0","","<div class=""circle set""></div>","set_on_2","","","",""
"1025"," ","html-keyboard-response","585","460068","0.0-585.0","","","go","1000","850","1025","175"
"null","null","html-keyboard-response","586","460569","0.0-586.0","","<div class=""circle""></div>","feedback_circle","","","",""
"null","null","html-keyboard-response","587","461571","0.0-587.0","","<p style=""font-size: 48px;"">+</p>","iti","","","",""
"null","null","html-keyboard-response","588","462072","0.0-588.0","","<div class=""circle ready""></div>","ready","","","",""
"null","null","html-keyboard-response","589","463575","0.0-589.0","","","isi","","","",""
"null","null","html-keyboard-response","590","464077","0.0-590.0","","<div class=""circle set""></div>","set_on_1","","","",""
"null","null","html-keyboard-response","591","464579","0.0-591.0","","","set_gap","500","","",""
"null","null","html-keyboard-response","592","465081","0.0-592.0","","<div class=""circle set""></div>","set_on_2","","","",""
"1202"," ","html-keyboard-response","593","466284","0.0-593.0","","","go","500","1500","1202","-298"
"null","null","html-keyboard-response","594","466785","0.0-594.0","","<div class=""circle""></div>","feedback_circle","","","",""
"null","null","html-keyboard-response","595","467788","0.0-595.0","","<p style=""font-size: 48px;"">+</p>","iti","","","",""
"null","null","html-keyboard-response","596","468291","0.0-596.0","","<div class=""circle ready""></div>","ready","","","",""
"null","null","html-keyboard-response","597","469473","0.0-597.0","","","isi","","","",""
"null","null","html-keyboard-response","598","469975","0.0-598.0","","<div class=""circle set""></div>","set_on_1","","","",""
"null","null","html-keyboard-response","599","470978","0.0-599.0","","","set_gap","1000","","",""
"null","null","html-keyboard-response","600","471480","0.0-600.0","","<div class=""circle set""></div>","set_on_2","","","",""
"1353"," ","html-keyboard-response","601","472834","0.0-601.0","","","go","1000","1180","1353","173"
"null","null","html-keyboard-response","602","473335","0.0-602.0","","<div class=""circle""></div>","feedback_circle","","","",""
"null","null","html-keyboard-response","603","474338","0.0-603.0","","<p style=""font-size: 48px;"">+</p>","iti","","","",""
"null","null","html-keyboard-response","604","474840","0.0-604.0","","<div class=""circle ready""></div>","ready","","","",""
"null","null","html-keyboard-response","605","475042","0.0-605.0","","","isi","","","",""
"null","null","html-keyboard-response","606","475545","0.0-606.0","","<div class=""circle set""></div>","set_on_1","","","",""
"null","null","html-keyboard-response","607","477047","0.0-607.0","","","set_gap","1500","","",""
"null","null","html-keyboard-response","608","477549","0.0-608.0","","<div class=""circle set""></div>","set_on_2","","","",""
"289"," ","html-keyboard-response","609","477838","0.0-609.0","","","go","1500","200","289","89"
"null","null","html-keyboard-response","610","478340","0.0-610.0","","<div class=""circle""></div>","feedback_circle","","","",""
"null","null","html-keyboard-response","611","479342","0.0-611.0","","<p style=""font-size: 48px;"">+</p>","iti","","","",""
"null","null","html-keyboard-response","612","479845","0.0-612.0","","<div class=""circle ready""></div>","ready","","","",""
"null","null","html-keyboard-response","613","481027","0.0-613.0","","","isi","","","",""
"null","null","html-keyboard-response","614","481530","0.0-614.0","","<div class=""circle set""></div>","set_on_1","","","",""
"null","null","html-keyboard-response","615","482032","0.0-615.0","","","set_gap","500","","",""
"null","null","html-keyboard-response","616","482534","0.0-616.0","","<div class=""circle set""></div>","set_on_2","","","",""
"1208"," ","html-keyboard-response","617","483742","0.0-617.0","","","go","500","1180","1208","28"
"null","null","html-keyboard-response","618","484244","0.0-618.0","","<div class=""circle""></div>","feedback_circle","","","",""
"null","null","html-keyboard-response","619","485246","0.0-619.0","","<p style=""font-size: 48px;"">+</p>","iti","","","",""
"null","null","html-keyboard-response","620","485748","0.0-620.0","","<div class=""circle ready""></div>","ready","","","",""
"null","null","html-keyboard-response","621","485950","0.0-621.0","","","isi","","","",""
"null","null","html-keyboard-response","622","486453","0.0-622.0","","<div class=""circle set""></div>","set_on_1","","","",""
"null","null","html-keyboard-response","623","487955","0.0-623.0","","","set_gap","1500","","",""
"null","null","html-keyboard-response","624","488456","0.0-624.0","","<div class=""circle set""></div>","set_on_2","","","",""
"1141"," ","html-keyboard-response","625","489598","0.0-625.0","","","go","1500","200","1141","941"
"null","null","html-keyboard-response","626","490100","0.0-626.0","","<div class=""circle""></div>","feedback_circle","","","",""
"null","null","html-keyboard-response","627","491102","0.0-627.0","","<p style=""font-size: 48px;"">+</p>","iti","","","",""
"null","null","html-keyboard-response","628","491604","0.0-628.0","","<div class=""circle ready""></div>","ready","","","",""
"null","null","html-keyboard-response","629","492456","0.0-629.0","","","isi","","","",""
"null","null","html-keyboard-response","630","492959","0.0-630.0","","<div class=""circle set""></div>","set_on_1","","","",""
"null","null","html-keyboard-response","631","494462","0.0-631.0","","","set_gap","1500","","",""
"null","null","html-keyboard-response","632","494965","0.0-632.0","","<div class=""circle set""></div>","set_on_2","","","",""
"1093"," ","html-keyboard-response","633","496058","0.0-633.0","","","go","1500","850","1093","243"
"null","null","html-keyboard-response","634","496560","0.0-634.0","","<div class=""circle""></div>","feedback_circle","","","",""
"null","null","html-keyboard-response","635","497562","0.0-635.0","","<p style=""font-size: 48px;"">+</p>","iti","","","",""
"null","null","html-keyboard-response","636","498065","0.0-636.0","","<div class=""circle ready""></div>","ready","","","",""
"null","null","html-keyboard-response","637","498267","0.0-637.0","","","isi","","","",""
"null","null","html-keyboard-response","638","498770","0.0-638.0","","<div class=""circle set""></div>","set_on_1","","","",""
"null","null","html-keyboard-response","639","499772","0.0-639.0","","","set_gap","1000","","",""
"null","null","html-keyboard-response","640","500274","0.0-640.0","","<div class=""circle set""></div>","set_on_2","","","",""
"302"," ","html-keyboard-response","641","500577","0.0-641.0","","","go","1000","200","302","102"
"null","null","html-keyboard-response","642","501079","0.0-642.0","","<div class=""circle""></div>","feedback_circle","","","",""
"null","null","html-keyboard-response","643","502081","0.0-643.0","","<p style=""font-size: 48px;"">+</p>","iti","","","",""
"null","null","html-keyboard-response","644","502583","0.0-644.0","","<div class=""circle ready""></div>","ready","","","",""
"null","null","html-keyboard-response","645","503116","0.0-645.0","","","isi","","","",""
"null","null","html-keyboard-response","646","503618","0.0-646.0","","<div class=""circle set""></div>","set_on_1","","","",""
"null","null","html-keyboard-response","647","505121","0.0-647.0","","","set_gap","1500","","",""
"null","null","html-keyboard-response","648","505624","0.0-648.0","","<div class=""circle set""></div>","set_on_2","","","",""
"618"," ","html-keyboard-response","649","506242","0.0-649.0","","","go","1500","530","618","88"
"null","null","html-keyboard-response","650","506744","0.0-650.0","","<div class=""circle""></div>","feedback_circle","","","",""
"null","null","html-keyboard-response","651","507747","0.0-651.0","","<p style=""font-size: 48px;"">+</p>","iti","","","",""
"null","null","html-keyboard-response","652","508249","0.0-652.0","","<div class=""circle ready""></div>","ready","","","",""
"null","null","html-keyboard-response","653","508451","0.0-653.0","","","isi","","","",""
"null","null","html-keyboard-response","654","508954","0.0-654.0","","<div class=""circle set""></div>","set_on_1","","","",""
"null","null","html-keyboard-response","655","510456","0.0-655.0","","","set_gap","1500","","",""
"null","null","html-keyboard-response","656","510958","0.0-656.0","","<div class=""circle set""></div>","set_on_2","","","",""
"284"," ","html-keyboard-response","657","511242","0.0-657.0","","","go","1500","200","284","84"
"null","null","html-keyboard-response","658","511744","0.0-658.0","","<div class=""circle""></div>","feedback_circle","","","",""
"null","null","html-keyboard-response","659","512746","0.0-659.0","","<p style=""font-size: 48px;"">+</p>","iti","","","",""
"null","null","html-keyboard-response","660","513248","0.0-660.0","","<div class=""circle ready""></div>","ready","","","",""
"null","null","html-keyboard-response","661","514750","0.0-661.0","","","isi","","","",""
"null","null","html-keyboard-response","662","515253","0.0-662.0","","<div class=""circle set""></div>","set_on_1","","","",""
"null","null","html-keyboard-response","663","515755","0.0-663.0","","","set_gap","500","","",""
"null","null","html-keyboard-response","664","516256","0.0-664.0","","<div class=""circle set""></div>","set_on_2","","","",""
"1230"," ","html-keyboard-response","665","517487","0.0-665.0","","","go","500","1500","1230","-270"
"null","null","html-keyboard-response","666","517989","0.0-666.0","","<div class=""circle""></div>","feedback_circle","","","",""
"null","null","html-keyboard-response","667","518991","0.0-667.0","","<p style=""font-size: 48px;"">+</p>","iti","","","",""
"null","null","html-keyboard-response","668","519493","0.0-668.0","","<div class=""circle ready""></div>","ready","","","",""
"null","null","html-keyboard-response","669","519695","0.0-669.0","","","isi","","","",""
"null","null","html-keyboard-response","670","520198","0.0-670.0","","<div class=""circle set""></div>","set_on_1","","","",""
"null","null","html-keyboard-response","671","521700","0.0-671.0","","","set_gap","1500","","",""
"null","null","html-keyboard-response","672","522203","0.0-672.0","","<div class=""circle set""></div>","set_on_2","","","",""
"288"," ","html-keyboard-response","673","522492","0.0-673.0","","","go","1500","200","288","88"
"null","null","html-keyboard-response","674","522993","0.0-674.0","","<div class=""circle""></div>","feedback_circle","","","",""
"null","null","html-keyboard-response","675","523995","0.0-675.0","","<p style=""font-size: 48px;"">+</p>","iti","","","",""
"null","null","html-keyboard-response","676","524498","0.0-676.0","","<div class=""circle ready""></div>","ready","","","",""
"null","null","html-keyboard-response","677","525350","0.0-677.0","","","isi","","","",""
"null","null","html-keyboard-response","678","525852","0.0-678.0","","<div class=""circle set""></div>","set_on_1","","","",""
"null","null","html-keyboard-response","679","526854","0.0-679.0","","","set_gap","1000","","",""
"null","null","html-keyboard-response","680","527356","0.0-680.0","","<div class=""circle set""></div>","set_on_2","","","",""
"1156"," ","html-keyboard-response","681","528513","0.0-681.0","","","go","1000","850","1156","306"
"null","null","html-keyboard-response","682","529014","0.0-682.0","","<div class=""circle""></div>","feedback_circle","","","",""
"null","null","html-keyboard-response","683","530017","0.0-683.0","","<p style=""font-size: 48px;"">+</p>","iti","","","",""
"null","null","html-keyboard-response","684","530519","0.0-684.0","","<div class=""circle ready""></div>","ready","","","",""
"null","null","html-keyboard-response","685","532022","0.0-685.0","","","isi","","","",""
"null","null","html-keyboard-response","686","532524","0.0-686.0","","<div class=""circle set""></div>","set_on_1","","","",""
"null","null","html-keyboard-response","687","533526","0.0-687.0","","","set_gap","1000","","",""
"null","null","html-keyboard-response","688","534028","0.0-688.0","","<div class=""circle set""></div>","set_on_2","","","",""
"1138"," ","html-keyboard-response","689","535167","0.0-689.0","","","go","1000","1500","1138","-362"
"null","null","html-keyboard-response","690","535668","0.0-690.0","","<div class=""circle""></div>","feedback_circle","","","",""
"null","null","html-keyboard-response","691","536670","0.0-691.0","","<p style=""font-size: 48px;"">+</p>","iti","","","",""
"null","null","html-keyboard-response","692","537173","0.0-692.0","","<div class=""circle ready""></div>","ready","","","",""
"null","null","html-keyboard-response","693","537705","0.0-693.0","","","isi","","","",""
"null","null","html-keyboard-response","694","538207","0.0-694.0","","<div class=""circle set""></div>","set_on_1","","","",""
"null","null","html-keyboard-response","695","539710","0.0-695.0","","","set_gap","1500","","",""
"null","null","html-keyboard-response","696","540212","0.0-696.0","","<div class=""circle set""></div>","set_on_2","","","",""
"620"," ","html-keyboard-response","697","540833","0.0-697.0","","","go","1500","530","620","90"
"null","null","html-keyboard-response","698","541335","0.0-698.0","","<div class=""circle""></div>","feedback_circle","","","",""
"null","null","html-keyboard-response","699","542337","0.0-699.0","","<p style=""font-size: 48px;"">+</p>","iti","","","",""
"null","null","html-keyboard-response","700","542839","0.0-700.0","","<div class=""circle ready""></div>","ready","","","",""
"null","null","html-keyboard-response","701","543042","0.0-701.0","","","isi","","","",""
"null","null","html-keyboard-response","702","543544","0.0-702.0","","<div class=""circle set""></div>","set_on_1","","","",""
"null","null","html-keyboard-response","703","544046","0.0-703.0","","","set_gap","500","","",""
"null","null","html-keyboard-response","704","544548","0.0-704.0","","<div class=""circle set""></div>","set_on_2","","","",""
"231"," ","html-keyboard-response","705","544780","0.0-705.0","","","go","500","200","231","31"
"null","null","html-keyboard-response","706","545282","0.0-706.0","","<div class=""circle""></div>","feedback_circle","","","",""
"null","null","html-keyboard-response","707","546285","0.0-707.0","","<p style=""font-size: 48px;"">+</p>","iti","","","",""
"null","null","html-keyboard-response","708","546787","0.0-708.0","","<div class=""circle ready""></div>","ready","","","",""
"null","null","html-keyboard-response","709","548289","0.0-709.0","","","isi","","","",""
"null","null","html-keyboard-response","710","548792","0.0-710.0","","<div class=""circle set""></div>","set_on_1","","","",""
"null","null","html-keyboard-response","711","549795","0.0-711.0","","","set_gap","1000","","",""
"null","null","html-keyboard-response","712","550296","0.0-712.0","","<div class=""circle set""></div>","set_on_2","","","",""
"929"," ","html-keyboard-response","713","551226","0.0-713.0","","","go","1000","1500","929","-571"
"null","null","html-keyboard-response","714","551727","0.0-714.0","","<div class=""circle""></div>","feedback_circle","","","",""
"null","null","html-keyboard-response","715","552729","0.0-715.0","","<p style=""font-size: 48px;"">+</p>","iti","","","",""
"null","null","html-keyboard-response","716","553231","0.0-716.0","","<div class=""circle ready""></div>","ready","","","",""
"null","null","html-keyboard-response","717","554083","0.0-717.0","","","isi","","","",""
"null","null","html-keyboard-response","718","554586","0.0-718.0","","<div class=""circle set""></div>","set_on_1","","","",""
"null","null","html-keyboard-response","719","556088","0.0-719.0","","","set_gap","1500","","",""
"null","null","html-keyboard-response","720","556591","0.0-720.0","","<div class=""circle set""></div>","set_on_2","","","",""
"984"," ","html-keyboard-response","721","557576","0.0-721.0","","","go","1500","850","984","134"
"null","null","html-keyboard-response","722","558077","0.0-722.0","","<div class=""circle""></div>","feedback_circle","","","",""
"null","null","html-keyboard-response","723","559079","0.0-723.0","","<p style=""font-size: 48px;"">+</p>","iti","","","",""
"null","null","html-keyboard-response","724","559581","0.0-724.0","","<div class=""circle ready""></div>","ready","","","",""
"null","null","html-keyboard-response","725","560763","0.0-725.0","","","isi","","","",""
"null","null","html-keyboard-response","726","561266","0.0-726.0","","<div class=""circle set""></div>","set_on_1","","","",""
"null","null","html-keyboard-response","727","561767","0.0-727.0","","","set_gap","500","","",""
"null","null","html-keyboard-response","728","562269","0.0-728.0","","<div class=""circle set""></div>","set_on_2","","","",""
"1028"," ","html-keyboard-response","729","563298","0.0-729.0","","","go","500","1180","1028","-152"
"null","null","html-keyboard-response","730","563800","0.0-730.0","","<div class=""circle""></div>","feedback_circle","","","",""
"null","null","html-keyboard-response","731","564802","0.0-731.0","","<p style=""font-size: 48px;"">+</p>","iti","","","",""
"null","null","html-keyboard-response","732","565305","0.0-732.0","","<div class=""circle ready""></div>","ready","","","",""
"null","null","html-keyboard-response","733","566487","0.0-733.0","","","isi","","","",""
"null","null","html-keyboard-response","734","566990","0.0-734.0","","<div class=""circle set""></div>","set_on_1","","","",""
"null","null","html-keyboard-response","735","567492","0.0-735.0","","","set_gap","500","","",""
"null","null","html-keyboard-response","736","567995","0.0-736.0","","<div class=""circle set""></div>","set_on_2","","","",""
"1118"," ","html-keyboard-response","737","569113","0.0-737.0","","","go","500","1180","1118","-62"
"null","null","html-keyboard-response","738","569615","0.0-738.0","","<div class=""circle""></div>","feedback_circle","","","",""
"null","null","html-keyboard-response","739","570618","0.0-739.0","","<p style=""font-size: 48px;"">+</p>","iti","","","",""
"null","null","html-keyboard-response","740","571119","0.0-740.0","","<div class=""circle ready""></div>","ready","","","",""
"null","null","html-keyboard-response","741","571971","0.0-741.0","","","isi","","","",""
"null","null","html-keyboard-response","742","572474","0.0-742.0","","<div class=""circle set""></div>","set_on_1","","","",""
"null","null","html-keyboard-response","743","573977","0.0-743.0","","","set_gap","1500","","",""
"null","null","html-keyboard-response","744","574480","0.0-744.0","","<div class=""circle set""></div>","set_on_2","","","",""
"926"," ","html-keyboard-response","745","575407","0.0-745.0","","","go","1500","850","926","76"
"null","null","html-keyboard-response","746","575908","0.0-746.0","","<div class=""circle""></div>","feedback_circle","","","",""
"null","null","html-keyboard-response","747","576911","0.0-747.0","","<p style=""font-size: 48px;"">+</p>","iti","","","",""
"null","null","html-keyboard-response","748","577413","0.0-748.0","","<div class=""circle ready""></div>","ready","","","",""
"null","null","html-keyboard-response","749","578596","0.0-749.0","","","isi","","","",""
"null","null","html-keyboard-response","750","579098","0.0-750.0","","<div class=""circle set""></div>","set_on_1","","","",""
"null","null","html-keyboard-response","751","580100","0.0-751.0","","","set_gap","1000","","",""
"null","null","html-keyboard-response","752","580601","0.0-752.0","","<div class=""circle set""></div>","set_on_2","","","",""
"766"," ","html-keyboard-response","753","581368","0.0-753.0","","","go","1000","1180","766","-414"
"null","null","html-keyboard-response","754","581870","0.0-754.0","","<div class=""circle""></div>","feedback_circle","","","",""
"null","null","html-keyboard-response","755","582873","0.0-755.0","","<p style=""font-size: 48px;"">+</p>","iti","","","",""
"null","null","html-keyboard-response","756","583375","0.0-756.0","","<div class=""circle ready""></div>","ready","","","",""
"null","null","html-keyboard-response","757","583908","0.0-757.0","","","isi","","","",""
"null","null","html-keyboard-response","758","584410","0.0-758.0","","<div class=""circle set""></div>","set_on_1","","","",""
"null","null","html-keyboard-response","759","585413","0.0-759.0","","","set_gap","1000","","",""
"null","null","html-keyboard-response","760","585915","0.0-760.0","","<div class=""circle set""></div>","set_on_2","","","",""
"634"," ","html-keyboard-response","761","586550","0.0-761.0","","","go","1000","530","634","104"
"null","null","html-keyboard-response","762","587052","0.0-762.0","","<div class=""circle""></div>","feedback_circle","","","",""
"null","null","html-keyboard-response","763","588055","0.0-763.0","","<p style=""font-size: 48px;"">+</p>","iti","","","",""
"null","null","html-keyboard-response","764","588557","0.0-764.0","","<div class=""circle ready""></div>","ready","","","",""
"null","null","html-keyboard-response","765","588760","0.0-765.0","","","isi","","","",""
"null","null","html-keyboard-response","766","589262","0.0-766.0","","<div class=""circle set""></div>","set_on_1","","","",""
"null","null","html-keyboard-response","767","590264","0.0-767.0","","","set_gap","1000","","",""
"null","null","html-keyboard-response","768","590767","0.0-768.0","","<div class=""circle set""></div>","set_on_2","","","",""
"285"," ","html-keyboard-response","769","591052","0.0-769.0","","","go","1000","200","285","85"
"null","null","html-keyboard-response","770","591554","0.0-770.0","","<div class=""circle""></div>","feedback_circle","","","",""
"null","null","html-keyboard-response","771","592556","0.0-771.0","","<p style=""font-size: 48px;"">+</p>","iti","","","",""
"null","null","html-keyboard-response","772","593059","0.0-772.0","","<div class=""circle ready""></div>","ready","","","",""
"null","null","html-keyboard-response","773","593592","0.0-773.0","","","isi","","","",""
"null","null","html-keyboard-response","774","594095","0.0-774.0","","<div class=""circle set""></div>","set_on_1","","","",""
"null","null","html-keyboard-response","775","594597","0.0-775.0","","","set_gap","500","","",""
"null","null","html-keyboard-response","776","595100","0.0-776.0","","<div class=""circle set""></div>","set_on_2","","","",""
"525"," ","html-keyboard-response","777","595625","0.0-777.0","","","go","500","530","525","-5"
"null","null","html-keyboard-response","778","596127","0.0-778.0","","<div class=""circle""></div>","feedback_circle","","","",""
"null","null","html-keyboard-response","779","597129","0.0-779.0","","<p style=""font-size: 48px;"">+</p>","iti","","","",""
"null","null","html-keyboard-response","780","597631","0.0-780.0","","<div class=""circle ready""></div>","ready","","","",""
"null","null","html-keyboard-response","781","598484","0.0-781.0","","","isi","","","",""
"null","null","html-keyboard-response","782","598987","0.0-782.0","","<div class=""circle set""></div>","set_on_1","","","",""
"null","null","html-keyboard-response","783","600489","0.0-783.0","","","set_gap","1500","","",""
"null","null","html-keyboard-response","784","600991","0.0-784.0","","<div class=""circle set""></div>","set_on_2","","","",""
"641"," ","html-keyboard-response","785","601632","0.0-785.0","","","go","1500","850","641","-209"
"null","null","html-keyboard-response","786","602134","0.0-786.0","","<div class=""circle""></div>","feedback_circle","","","",""
"null","null","html-keyboard-response","787","603137","0.0-787.0","","<p style=""font-size: 48px;"">+</p>","iti","","","",""
"null","null","html-keyboard-response","788","603639","0.0-788.0","","<div class=""circle ready""></div>","ready","","","",""
"null","null","html-keyboard-response","789","603841","0.0-789.0","","","isi","","","",""
"null","null","html-keyboard-response","790","604343","0.0-790.0","","<div class=""circle set""></div>","set_on_1","","","",""
"null","null","html-keyboard-response","791","605345","0.0-791.0","","","set_gap","1000","","",""
"null","null","html-keyboard-response","792","605847","0.0-792.0","","<div class=""circle set""></div>","set_on_2","","","",""
"352"," ","html-keyboard-response","793","606200","0.0-793.0","","","go","1000","200","352","152"
"null","null","html-keyboard-response","794","606701","0.0-794.0","","<div class=""circle""></div>","feedback_circle","","","",""
"null","null","html-keyboard-response","795","607703","0.0-795.0","","<p style=""font-size: 48px;"">+</p>","iti","","","",""
"null","null","html-keyboard-response","796","608205","0.0-796.0","","<div class=""circle ready""></div>","ready","","","",""
"null","null","html-keyboard-response","797","609058","0.0-797.0","","","isi","","","",""
"null","null","html-keyboard-response","798","609560","0.0-798.0","","<div class=""circle set""></div>","set_on_1","","","",""
"null","null","html-keyboard-response","799","611062","0.0-799.0","","","set_gap","1500","","",""
"null","null","html-keyboard-response","800","611564","0.0-800.0","","<div class=""circle set""></div>","set_on_2","","","",""
"629"," ","html-keyboard-response","801","612194","0.0-801.0","","","go","1500","850","629","-221"
"null","null","html-keyboard-response","802","612695","0.0-802.0","","<div class=""circle""></div>","feedback_circle","","","",""
"null","null","html-keyboard-response","803","613698","0.0-803.0","","<p style=""font-size: 48px;"">+</p>","iti","","","",""
"null","null","html-keyboard-response","804","614201","0.0-804.0","","<div class=""circle ready""></div>","ready","","","",""
"null","null","html-keyboard-response","805","614404","0.0-805.0","","","isi","","","",""
"null","null","html-keyboard-response","806","614906","0.0-806.0","","<div class=""circle set""></div>","set_on_1","","","",""
"null","null","html-keyboard-response","807","615408","0.0-807.0","","","set_gap","500","","",""
"null","null","html-keyboard-response","808","615910","0.0-808.0","","<div class=""circle set""></div>","set_on_2","","","",""
"308"," ","html-keyboard-response","809","616218","0.0-809.0","","","go","500","200","308","108"
"null","null","html-keyboard-response","810","616720","0.0-810.0","","<div class=""circle""></div>","feedback_circle","","","",""
"null","null","html-keyboard-response","811","617722","0.0-811.0","","<p style=""font-size: 48px;"">+</p>","iti","","","",""
"null","null","html-keyboard-response","812","618225","0.0-812.0","","<div class=""circle ready""></div>","ready","","","",""
"null","null","html-keyboard-response","813","619408","0.0-813.0","","","isi","","","",""
"null","null","html-keyboard-response","814","619910","0.0-814.0","","<div class=""circle set""></div>","set_on_1","","","",""
"null","null","html-keyboard-response","815","621412","0.0-815.0","","","set_gap","1500","","",""
"null","null","html-keyboard-response","816","621915","0.0-816.0","","<div class=""circle set""></div>","set_on_2","","","",""
"552"," ","html-keyboard-response","817","622467","0.0-817.0","","","go","1500","1180","552","-628"
"null","null","html-keyboard-response","818","622968","0.0-818.0","","<div class=""circle""></div>","feedback_circle","","","",""
"null","null","html-keyboard-response","819","623971","0.0-819.0","","<p style=""font-size: 48px;"">+</p>","iti","","","",""
"null","null","html-keyboard-response","820","624473","0.0-820.0","","<div class=""circle ready""></div>","ready","","","",""
"null","null","html-keyboard-response","821","624675","0.0-821.0","","","isi","","","",""
"null","null","html-keyboard-response","822","625178","0.0-822.0","","<div class=""circle set""></div>","set_on_1","","","",""
"null","null","html-keyboard-response","823","626181","0.0-823.0","","","set_gap","1000","","",""
"null","null","html-keyboard-response","824","626683","0.0-824.0","","<div class=""circle set""></div>","set_on_2","","","",""
"400"," ","html-keyboard-response","825","627085","0.0-825.0","","","go","1000","200","400","200"
"null","null","html-keyboard-response","826","627586","0.0-826.0","","<div class=""circle""></div>","feedback_circle","","","",""
"null","null","html-keyboard-response","827","628588","0.0-827.0","","<p style=""font-size: 48px;"">+</p>","iti","","","",""
"null","null","html-keyboard-response","828","629091","0.0-828.0","","<div class=""circle ready""></div>","ready","","","",""
"null","null","html-keyboard-response","829","630593","0.0-829.0","","","isi","","","",""
"null","null","html-keyboard-response","830","631095","0.0-830.0","","<div class=""circle set""></div>","set_on_1","","","",""
"null","null","html-keyboard-response","831","632097","0.0-831.0","","","set_gap","1000","","",""
"null","null","html-keyboard-response","832","632599","0.0-832.0","","<div class=""circle set""></div>","set_on_2","","","",""
"1056"," ","html-keyboard-response","833","633655","0.0-833.0","","","go","1000","1500","1056","-444"
"null","null","html-keyboard-response","834","634157","0.0-834.0","","<div class=""circle""></div>","feedback_circle","","","",""
"null","null","html-keyboard-response","835","635159","0.0-835.0","","<p style=""font-size: 48px;"">+</p>","iti","","","",""
"null","null","html-keyboard-response","836","635660","0.0-836.0","","<div class=""circle ready""></div>","ready","","","",""
"null","null","html-keyboard-response","837","635863","0.0-837.0","","","isi","","","",""
"null","null","html-keyboard-response","838","636365","0.0-838.0","","<div class=""circle set""></div>","set_on_1","","","",""
"null","null","html-keyboard-response","839","637867","0.0-839.0","","","set_gap","1500","","",""
"null","null","html-keyboard-response","840","638369","0.0-840.0","","<div class=""circle set""></div>","set_on_2","","","",""
"226"," ","html-keyboard-response","841","638596","0.0-841.0","","","go","1500","200","226","26"
"null","null","html-keyboard-response","842","639097","0.0-842.0","","<div class=""circle""></div>","feedback_circle","","","",""
"null","null","html-keyboard-response","843","640099","0.0-843.0","","<p style=""font-size: 48px;"">+</p>","iti","","","",""
"null","null","html-keyboard-response","844","640601","0.0-844.0","","<div class=""circle ready""></div>","ready","","","",""
"null","null","html-keyboard-response","845","640804","0.0-845.0","","","isi","","","",""
