"rt","response","trial_type","trial_index","time_elapsed","internal_node_id","subject_ID","stimulus","phase","set_duration","target_interval","reproduced_interval","reproduction_error"
"764","{""subject_id"":""adi""}","survey-text","0","768","0.0-0.0","","","","","","",""
"null","null","html-keyboard-response","1","2773","0.0-1.0","","
    <p>Ready-Set-Go Task:</p>
    <ul style=""text-align:left; max-width:600px; margin:auto;"">
      <li><strong>Blue circle (""Ready"")</strong> appears</li>
      <li>Then, after a delay, a <strong>green circle (""Set"")</strong> appears</li>
      <li>After ""Set"" disappears, screen goes blank</li>
      <li>You must <strong>press SPACE or tap the screen</strong> when you think the same delay has passed</li>
      <li>After you press, a red circle will appear</li>
      <li>Then you'll see how close your timing was (only for the first 5 trials).</li>
    </ul>
    <p>Get Ready!</p>
  ","","","","",""
"null","null","html-keyboard-response","2","3276","0.0-2.0","","<div class=""circle ready""></div>","ready","","","",""
"null","null","html-keyboard-response","3","4350","0.0-3.0","","","isi","","","",""
"null","null","html-keyboard-response","4","4853","0.0-4.0","","<div class=""circle set""></div>","set_on_1","","","",""
"null","null","html-keyboard-response","5","7855","0.0-5.0","","","set_gap","3000","","",""
"null","null","html-keyboard-response","6","8358","0.0-6.0","","<div class=""circle ready""></div>","set_on_2","","","",""
"796"," ","html-keyboard-response","7","9155","0.0-7.0","","","go","","1070","796","-274"
"null","null","html-keyboard-response","8","9657","0.0-8.0","","<div class=""circle go""></div>","feedback_circle","","","",""
"null","null","html-keyboard-response","9","10160","0.0-9.0","","<div class=""circle""></div>","feedback_circle","","","",""
"null","null","html-keyboard-response","10","10663","0.0-10.0","","
      <div style=""text-align:center;"">
        
        <p style=""font-size: 16px; text-align: center;"">Trial 1 of 300</p>
        <p><strong>Error:</strong> -274 ms</p>

        <div style=""position: relative; width: 80%; height: 40px; margin: 40px auto;"">
          <div style=""height: 8px; background: linear-gradient(to right, #3498db, #ccc, #e74c3c); border-radius: 4px;""></div>
          <div style=""position: absolute; left: 22.6%; top: -6px; transform: translateX(-50%);"">
            <div style=""width: 14px; height: 14px; background: black; border-radius: 50%; border: 2px solid white;""></div>
          </div>
          <div style=""position: absolute; left: 0%; top: 20px; font-size: 12px;"">–500 ms</div>
          <div style=""position: absolute; left: 50%; top: 20px; font-size: 12px; transform: translateX(-50%);"">0</div>
          <div style=""position: absolute; right: 0%; top: 20px; font-size: 12px;"">+500 ms</div>
        </div>

        <p>Press any key to continue.</p>
      </div>
    ","feedback_text","","","",""
"null","null","html-keyboard-response","11","11167","0.0-11.0","","<p style=""font-size: 48px;"">+</p>","iti","","","",""
"null","null","html-keyboard-response","12","11669","0.0-12.0","","<div class=""circle ready""></div>","ready","","","",""
"null","null","html-keyboard-response","13","13081","0.0-13.0","","","isi","","","",""
"null","null","html-keyboard-response","14","13584","0.0-14.0","","<div class=""circle set""></div>","set_on_1","","","",""
"null","null","html-keyboard-response","15","15669","0.0-15.0","","","set_gap","2083","","",""
"null","null","html-keyboard-response","16","16172","0.0-16.0","","<div class=""circle ready""></div>","set_on_2","","","",""
"1187"," ","html-keyboard-response","17","17360","0.0-17.0","","","go","","1410","1187","-223"
"null","null","html-keyboard-response","18","17861","0.0-18.0","","<div class=""circle go""></div>","feedback_circle","","","",""
"null","null","html-keyboard-response","19","18364","0.0-19.0","","<div class=""circle""></div>","feedback_circle","","","",""
"null","null","html-keyboard-response","20","18867","0.0-20.0","","
      <div style=""text-align:center;"">
        
        <p style=""font-size: 16px; text-align: center;"">Trial 2 of 300</p>
        <p><strong>Error:</strong> -223 ms</p>

        <div style=""position: relative; width: 80%; height: 40px; margin: 40px auto;"">
          <div style=""height: 8px; background: linear-gradient(to right, #3498db, #ccc, #e74c3c); border-radius: 4px;""></div>
          <div style=""position: absolute; left: 27.700000000000003%; top: -6px; transform: translateX(-50%);"">
            <div style=""width: 14px; height: 14px; background: black; border-radius: 50%; border: 2px solid white;""></div>
          </div>
          <div style=""position: absolute; left: 0%; top: 20px; font-size: 12px;"">–500 ms</div>
          <div style=""position: absolute; left: 50%; top: 20px; font-size: 12px; transform: translateX(-50%);"">0</div>
          <div style=""position: absolute; right: 0%; top: 20px; font-size: 12px;"">+500 ms</div>
        </div>

        <p>Press any key to continue.</p>
      </div>
    ","feedback_text","","","",""
"null","null","html-keyboard-response","21","19370","0.0-21.0","","<p style=""font-size: 48px;"">+</p>","iti","","","",""
"null","null","html-keyboard-response","22","19871","0.0-22.0","","<div class=""circle ready""></div>","ready","","","",""
"null","null","html-keyboard-response","23","21374","0.0-23.0","","","isi","","","",""
"null","null","html-keyboard-response","24","21877","0.0-24.0","","<div class=""circle set""></div>","set_on_1","","","",""
"null","null","html-keyboard-response","25","23047","0.0-25.0","","","set_gap","1167","","",""
"null","null","html-keyboard-response","26","23550","0.0-26.0","","<div class=""circle ready""></div>","set_on_2","","","",""
"1083"," ","html-keyboard-response","27","24634","0.0-27.0","","","go","","1500","1083","-417"
"null","null","html-keyboard-response","28","25136","0.0-28.0","","<div class=""circle go""></div>","feedback_circle","","","",""
"null","null","html-keyboard-response","29","25638","0.0-29.0","","<div class=""circle""></div>","feedback_circle","","","",""
"null","null","html-keyboard-response","30","26140","0.0-30.0","","
      <div style=""text-align:center;"">
        
        <p style=""font-size: 16px; text-align: center;"">Trial 3 of 300</p>
        <p><strong>Error:</strong> -417 ms</p>

        <div style=""position: relative; width: 80%; height: 40px; margin: 40px auto;"">
          <div style=""height: 8px; background: linear-gradient(to right, #3498db, #ccc, #e74c3c); border-radius: 4px;""></div>
          <div style=""position: absolute; left: 8.3%; top: -6px; transform: translateX(-50%);"">
            <div style=""width: 14px; height: 14px; background: black; border-radius: 50%; border: 2px solid white;""></div>
          </div>
          <div style=""position: absolute; left: 0%; top: 20px; font-size: 12px;"">–500 ms</div>
          <div style=""position: absolute; left: 50%; top: 20px; font-size: 12px; transform: translateX(-50%);"">0</div>
          <div style=""position: absolute; right: 0%; top: 20px; font-size: 12px;"">+500 ms</div>
        </div>

        <p>Press any key to continue.</p>
      </div>
    ","feedback_text","","","",""
"null","null","html-keyboard-response","31","26642","0.0-31.0","","<p style=""font-size: 48px;"">+</p>","iti","","","",""
"null","null","html-keyboard-response","32","27145","0.0-32.0","","<div class=""circle ready""></div>","ready","","","",""
"null","null","html-keyboard-response","33","28477","0.0-33.0","","","isi","","","",""
"null","null","html-keyboard-response","34","28979","0.0-34.0","","<div class=""circle set""></div>","set_on_1","","","",""
"null","null","html-keyboard-response","35","29231","0.0-35.0","","","set_gap","250","","",""
"null","null","html-keyboard-response","36","29733","0.0-36.0","","<div class=""circle ready""></div>","set_on_2","","","",""
"1057"," ","html-keyboard-response","37","30791","0.0-37.0","","","go","","1330","1057","-273"
"null","null","html-keyboard-response","38","31293","0.0-38.0","","<div class=""circle go""></div>","feedback_circle","","","",""
"null","null","html-keyboard-response","39","31794","0.0-39.0","","<div class=""circle""></div>","feedback_circle","","","",""
"null","null","html-keyboard-response","40","32297","0.0-40.0","","
      <div style=""text-align:center;"">
        
        <p style=""font-size: 16px; text-align: center;"">Trial 4 of 300</p>
        <p><strong>Error:</strong> -273 ms</p>

        <div style=""position: relative; width: 80%; height: 40px; margin: 40px auto;"">
          <div style=""height: 8px; background: linear-gradient(to right, #3498db, #ccc, #e74c3c); border-radius: 4px;""></div>
          <div style=""position: absolute; left: 22.7%; top: -6px; transform: translateX(-50%);"">
            <div style=""width: 14px; height: 14px; background: black; border-radius: 50%; border: 2px solid white;""></div>
          </div>
          <div style=""position: absolute; left: 0%; top: 20px; font-size: 12px;"">–500 ms</div>
          <div style=""position: absolute; left: 50%; top: 20px; font-size: 12px; transform: translateX(-50%);"">0</div>
          <div style=""position: absolute; right: 0%; top: 20px; font-size: 12px;"">+500 ms</div>
        </div>

        <p>Press any key to continue.</p>
      </div>
    ","feedback_text","","","",""
"null","null","html-keyboard-response","41","32799","0.0-41.0","","<p style=""font-size: 48px;"">+</p>","iti","","","",""
"null","null","html-keyboard-response","42","33301","0.0-42.0","","<div class=""circle ready""></div>","ready","","","",""
"null","null","html-keyboard-response","43","34204","0.0-43.0","","","isi","","","",""
"null","null","html-keyboard-response","44","34707","0.0-44.0","","<div class=""circle set""></div>","set_on_1","","","",""
"null","null","html-keyboard-response","45","35877","0.0-45.0","","","set_gap","1167","","",""
"null","null","html-keyboard-response","46","36379","0.0-46.0","","<div class=""circle ready""></div>","set_on_2","","","",""
"1076"," ","html-keyboard-response","47","37456","0.0-47.0","","","go","","900","1076","176"
"null","null","html-keyboard-response","48","37958","0.0-48.0","","<div class=""circle go""></div>","feedback_circle","","","",""
"null","null","html-keyboard-response","49","38460","0.0-49.0","","<div class=""circle""></div>","feedback_circle","","","",""
"null","null","html-keyboard-response","50","38963","0.0-50.0","","
      <div style=""text-align:center;"">
        
        <p style=""font-size: 16px; text-align: center;"">Trial 5 of 300</p>
        <p><strong>Error:</strong> +176 ms</p>

        <div style=""position: relative; width: 80%; height: 40px; margin: 40px auto;"">
          <div style=""height: 8px; background: linear-gradient(to right, #3498db, #ccc, #e74c3c); border-radius: 4px;""></div>
          <div style=""position: absolute; left: 67.60000000000001%; top: -6px; transform: translateX(-50%);"">
            <div style=""width: 14px; height: 14px; background: black; border-radius: 50%; border: 2px solid white;""></div>
          </div>
          <div style=""position: absolute; left: 0%; top: 20px; font-size: 12px;"">–500 ms</div>
          <div style=""position: absolute; left: 50%; top: 20px; font-size: 12px; transform: translateX(-50%);"">0</div>
          <div style=""position: absolute; right: 0%; top: 20px; font-size: 12px;"">+500 ms</div>
        </div>

        <p>Press any key to continue.</p>
      </div>
    ","feedback_text","","","",""
"null","null","html-keyboard-response","51","39466","0.0-51.0","","<p style=""font-size: 48px;"">+</p>","iti","","","",""
"null","null","html-keyboard-response","52","39968","0.0-52.0","","<div class=""circle ready""></div>","ready","","","",""
"null","null","html-keyboard-response","53","41130","0.0-53.0","","","isi","","","",""
"null","null","html-keyboard-response","54","41633","0.0-54.0","","<div class=""circle set""></div>","set_on_1","","","",""
"null","null","html-keyboard-response","55","41886","0.0-55.0","","","set_gap","250","","",""
"null","null","html-keyboard-response","56","42388","0.0-56.0","","<div class=""circle ready""></div>","set_on_2","","","",""
"858"," ","html-keyboard-response","57","43247","0.0-57.0","","","go","","1160","858","-302"
"null","null","html-keyboard-response","58","43749","0.0-58.0","","<div class=""circle go""></div>","feedback_circle","","","",""
"null","null","html-keyboard-response","59","44251","0.0-59.0","","<div class=""circle""></div>","feedback_circle","","","",""
"null","null","html-keyboard-response","60","44754","0.0-60.0","","
      <div style=""text-align:center;"">
        
        <p style=""font-size: 16px; text-align: center;"">Trial 6 of 300</p>
        <p><strong>Error:</strong> -302 ms</p>

        <div style=""position: relative; width: 80%; height: 40px; margin: 40px auto;"">
          <div style=""height: 8px; background: linear-gradient(to right, #3498db, #ccc, #e74c3c); border-radius: 4px;""></div>
          <div style=""position: absolute; left: 19.8%; top: -6px; transform: translateX(-50%);"">
            <div style=""width: 14px; height: 14px; background: black; border-radius: 50%; border: 2px solid white;""></div>
          </div>
          <div style=""position: absolute; left: 0%; top: 20px; font-size: 12px;"">–500 ms</div>
          <div style=""position: absolute; left: 50%; top: 20px; font-size: 12px; transform: translateX(-50%);"">0</div>
          <div style=""position: absolute; right: 0%; top: 20px; font-size: 12px;"">+500 ms</div>
        </div>

        <p>Press any key to continue.</p>
      </div>
    ","feedback_text","","","",""
"null","null","html-keyboard-response","61","45257","0.0-61.0","","<p style=""font-size: 48px;"">+</p>","iti","","","",""
"null","null","html-keyboard-response","62","45759","0.0-62.0","","<div class=""circle ready""></div>","ready","","","",""
"null","null","html-keyboard-response","63","46662","0.0-63.0","","","isi","","","",""
"null","null","html-keyboard-response","64","47165","0.0-64.0","","<div class=""circle set""></div>","set_on_1","","","",""
"null","null","html-keyboard-response","65","50168","0.0-65.0","","","set_gap","3000","","",""
"null","null","html-keyboard-response","66","50671","0.0-66.0","","<div class=""circle ready""></div>","set_on_2","","","",""
"1245"," ","html-keyboard-response","67","51917","0.0-67.0","","","go","","900","1245","345"
"null","null","html-keyboard-response","68","52418","0.0-68.0","","<div class=""circle go""></div>","feedback_circle","","","",""
"null","null","html-keyboard-response","69","52920","0.0-69.0","","<div class=""circle""></div>","feedback_circle","","","",""
"null","null","html-keyboard-response","70","53423","0.0-70.0","","
      <div style=""text-align:center;"">
        
        <p style=""font-size: 16px; text-align: center;"">Trial 7 of 300</p>
        <p><strong>Error:</strong> +345 ms</p>

        <div style=""position: relative; width: 80%; height: 40px; margin: 40px auto;"">
          <div style=""height: 8px; background: linear-gradient(to right, #3498db, #ccc, #e74c3c); border-radius: 4px;""></div>
          <div style=""position: absolute; left: 84.5%; top: -6px; transform: translateX(-50%);"">
            <div style=""width: 14px; height: 14px; background: black; border-radius: 50%; border: 2px solid white;""></div>
          </div>
          <div style=""position: absolute; left: 0%; top: 20px; font-size: 12px;"">–500 ms</div>
          <div style=""position: absolute; left: 50%; top: 20px; font-size: 12px; transform: translateX(-50%);"">0</div>
          <div style=""position: absolute; right: 0%; top: 20px; font-size: 12px;"">+500 ms</div>
        </div>

        <p>Press any key to continue.</p>
      </div>
    ","feedback_text","","","",""
"null","null","html-keyboard-response","71","53926","0.0-71.0","","<p style=""font-size: 48px;"">+</p>","iti","","","",""
"null","null","html-keyboard-response","72","54428","0.0-72.0","","<div class=""circle ready""></div>","ready","","","",""
"null","null","html-keyboard-response","73","55931","0.0-73.0","","","isi","","","",""
"null","null","html-keyboard-response","74","56433","0.0-74.0","","<div class=""circle set""></div>","set_on_1","","","",""
"null","null","html-keyboard-response","75","57603","0.0-75.0","","","set_gap","1167","","",""
"null","null","html-keyboard-response","76","58106","0.0-76.0","","<div class=""circle ready""></div>","set_on_2","","","",""
"1136"," ","html-keyboard-response","77","59243","0.0-77.0","","","go","","1500","1136","-364"
"null","null","html-keyboard-response","78","59744","0.0-78.0","","<div class=""circle go""></div>","feedback_circle","","","",""
"null","null","html-keyboard-response","79","60246","0.0-79.0","","<div class=""circle""></div>","feedback_circle","","","",""
"null","null","html-keyboard-response","80","60749","0.0-80.0","","
      <div style=""text-align:center;"">
        
        <p style=""font-size: 16px; text-align: center;"">Trial 8 of 300</p>
        <p><strong>Error:</strong> -364 ms</p>

        <div style=""position: relative; width: 80%; height: 40px; margin: 40px auto;"">
          <div style=""height: 8px; background: linear-gradient(to right, #3498db, #ccc, #e74c3c); border-radius: 4px;""></div>
          <div style=""position: absolute; left: 13.600000000000001%; top: -6px; transform: translateX(-50%);"">
            <div style=""width: 14px; height: 14px; background: black; border-radius: 50%; border: 2px solid white;""></div>
          </div>
          <div style=""position: absolute; left: 0%; top: 20px; font-size: 12px;"">–500 ms</div>
          <div style=""position: absolute; left: 50%; top: 20px; font-size: 12px; transform: translateX(-50%);"">0</div>
          <div style=""position: absolute; right: 0%; top: 20px; font-size: 12px;"">+500 ms</div>
        </div>

        <p>Press any key to continue.</p>
      </div>
    ","feedback_text","","","",""
"null","null","html-keyboard-response","81","61251","0.0-81.0","","<p style=""font-size: 48px;"">+</p>","iti","","","",""
"null","null","html-keyboard-response","82","61753","0.0-82.0","","<div class=""circle ready""></div>","ready","","","",""
"null","null","html-keyboard-response","83","63256","0.0-83.0","","","isi","","","",""
"null","null","html-keyboard-response","84","63758","0.0-84.0","","<div class=""circle set""></div>","set_on_1","","","",""
"null","null","html-keyboard-response","85","65843","0.0-85.0","","","set_gap","2083","","",""
"null","null","html-keyboard-response","86","66346","0.0-86.0","","<div class=""circle ready""></div>","set_on_2","","","",""
"1309"," ","html-keyboard-response","87","67657","0.0-87.0","","","go","","1500","1309","-191"
"null","null","html-keyboard-response","88","68158","0.0-88.0","","<div class=""circle go""></div>","feedback_circle","","","",""
"null","null","html-keyboard-response","89","68661","0.0-89.0","","<div class=""circle""></div>","feedback_circle","","","",""
"null","null","html-keyboard-response","90","69164","0.0-90.0","","
      <div style=""text-align:center;"">
        
        <p style=""font-size: 16px; text-align: center;"">Trial 9 of 300</p>
        <p><strong>Error:</strong> -191 ms</p>

        <div style=""position: relative; width: 80%; height: 40px; margin: 40px auto;"">
          <div style=""height: 8px; background: linear-gradient(to right, #3498db, #ccc, #e74c3c); border-radius: 4px;""></div>
          <div style=""position: absolute; left: 30.9%; top: -6px; transform: translateX(-50%);"">
            <div style=""width: 14px; height: 14px; background: black; border-radius: 50%; border: 2px solid white;""></div>
          </div>
          <div style=""position: absolute; left: 0%; top: 20px; font-size: 12px;"">–500 ms</div>
          <div style=""position: absolute; left: 50%; top: 20px; font-size: 12px; transform: translateX(-50%);"">0</div>
          <div style=""position: absolute; right: 0%; top: 20px; font-size: 12px;"">+500 ms</div>
        </div>

        <p>Press any key to continue.</p>
      </div>
    ","feedback_text","","","",""
"null","null","html-keyboard-response","91","69667","0.0-91.0","","<p style=""font-size: 48px;"">+</p>","iti","","","",""
"null","null","html-keyboard-response","92","70169","0.0-92.0","","<div class=""circle ready""></div>","ready","","","",""
"null","null","html-keyboard-response","93","71072","0.0-93.0","","","isi","","","",""
"null","null","html-keyboard-response","94","71574","0.0-94.0","","<div class=""circle set""></div>","set_on_1","","","",""
"null","null","html-keyboard-response","95","73660","0.0-95.0","","","set_gap","2083","","",""
"null","null","html-keyboard-response","96","74163","0.0-96.0","","<div class=""circle ready""></div>","set_on_2","","","",""
"1056"," ","html-keyboard-response","97","75220","0.0-97.0","","","go","","900","1056","156"
"null","null","html-keyboard-response","98","75722","0.0-98.0","","<div class=""circle go""></div>","feedback_circle","","","",""
"null","null","html-keyboard-response","99","76224","0.0-99.0","","<div class=""circle""></div>","feedback_circle","","","",""
"null","null","html-keyboard-response","100","76728","0.0-100.0","","
      <div style=""text-align:center;"">
        
        <p style=""font-size: 16px; text-align: center;"">Trial 10 of 300</p>
        <p><strong>Error:</strong> +156 ms</p>

        <div style=""position: relative; width: 80%; height: 40px; margin: 40px auto;"">
          <div style=""height: 8px; background: linear-gradient(to right, #3498db, #ccc, #e74c3c); border-radius: 4px;""></div>
          <div style=""position: absolute; left: 65.60000000000001%; top: -6px; transform: translateX(-50%);"">
            <div style=""width: 14px; height: 14px; background: black; border-radius: 50%; border: 2px solid white;""></div>
          </div>
          <div style=""position: absolute; left: 0%; top: 20px; font-size: 12px;"">–500 ms</div>
          <div style=""position: absolute; left: 50%; top: 20px; font-size: 12px; transform: translateX(-50%);"">0</div>
          <div style=""position: absolute; right: 0%; top: 20px; font-size: 12px;"">+500 ms</div>
        </div>

        <p>Press any key to continue.</p>
      </div>
    ","feedback_text","","","",""
"null","null","html-keyboard-response","101","77231","0.0-101.0","","<p style=""font-size: 48px;"">+</p>","iti","","","",""
"null","null","html-keyboard-response","102","77733","0.0-102.0","","<div class=""circle ready""></div>","ready","","","",""
"null","null","html-keyboard-response","103","78635","0.0-103.0","","","isi","","","",""
"null","null","html-keyboard-response","104","79138","0.0-104.0","","<div class=""circle set""></div>","set_on_1","","","",""
"null","null","html-keyboard-response","105","79390","0.0-105.0","","","set_gap","250","","",""
"null","null","html-keyboard-response","106","79892","0.0-106.0","","<div class=""circle ready""></div>","set_on_2","","","",""
"801"," ","html-keyboard-response","107","80694","0.0-107.0","","","go","","900","801","-99"
"null","null","html-keyboard-response","108","81196","0.0-108.0","","<div class=""circle go""></div>","feedback_circle","","","",""
"null","null","html-keyboard-response","109","81698","0.0-109.0","","<div class=""circle""></div>","feedback_circle","","","",""
"null","null","html-keyboard-response","110","82201","0.0-110.0","","
      <div style=""text-align:center;"">
        
        <p style=""font-size: 16px; text-align: center;"">Trial 11 of 300</p>
        <p><strong>Error:</strong> -99 ms</p>

        <div style=""position: relative; width: 80%; height: 40px; margin: 40px auto;"">
          <div style=""height: 8px; background: linear-gradient(to right, #3498db, #ccc, #e74c3c); border-radius: 4px;""></div>
          <div style=""position: absolute; left: 40.1%; top: -6px; transform: translateX(-50%);"">
            <div style=""width: 14px; height: 14px; background: black; border-radius: 50%; border: 2px solid white;""></div>
          </div>
          <div style=""position: absolute; left: 0%; top: 20px; font-size: 12px;"">–500 ms</div>
          <div style=""position: absolute; left: 50%; top: 20px; font-size: 12px; transform: translateX(-50%);"">0</div>
          <div style=""position: absolute; right: 0%; top: 20px; font-size: 12px;"">+500 ms</div>
        </div>

        <p>Press any key to continue.</p>
      </div>
    ","feedback_text","","","",""
"null","null","html-keyboard-response","111","82704","0.0-111.0","","<p style=""font-size: 48px;"">+</p>","iti","","","",""
"null","null","html-keyboard-response","112","83206","0.0-112.0","","<div class=""circle ready""></div>","ready","","","",""
"null","null","html-keyboard-response","113","84449","0.0-113.0","","","isi","","","",""
"null","null","html-keyboard-response","114","84952","0.0-114.0","","<div class=""circle set""></div>","set_on_1","","","",""
"null","null","html-keyboard-response","115","87955","0.0-115.0","","","set_gap","3000","","",""
"null","null","html-keyboard-response","116","88457","0.0-116.0","","<div class=""circle ready""></div>","set_on_2","","","",""
"1105"," ","html-keyboard-response","117","89563","0.0-117.0","","","go","","1240","1105","-135"
"null","null","html-keyboard-response","118","90064","0.0-118.0","","<div class=""circle go""></div>","feedback_circle","","","",""
"null","null","html-keyboard-response","119","90567","0.0-119.0","","<div class=""circle""></div>","feedback_circle","","","",""
"null","null","html-keyboard-response","120","91070","0.0-120.0","","
      <div style=""text-align:center;"">
        
        <p style=""font-size: 16px; text-align: center;"">Trial 12 of 300</p>
        <p><strong>Error:</strong> -135 ms</p>

        <div style=""position: relative; width: 80%; height: 40px; margin: 40px auto;"">
          <div style=""height: 8px; background: linear-gradient(to right, #3498db, #ccc, #e74c3c); border-radius: 4px;""></div>
          <div style=""position: absolute; left: 36.5%; top: -6px; transform: translateX(-50%);"">
            <div style=""width: 14px; height: 14px; background: black; border-radius: 50%; border: 2px solid white;""></div>
          </div>
          <div style=""position: absolute; left: 0%; top: 20px; font-size: 12px;"">–500 ms</div>
          <div style=""position: absolute; left: 50%; top: 20px; font-size: 12px; transform: translateX(-50%);"">0</div>
          <div style=""position: absolute; right: 0%; top: 20px; font-size: 12px;"">+500 ms</div>
        </div>

        <p>Press any key to continue.</p>
      </div>
    ","feedback_text","","","",""
"null","null","html-keyboard-response","121","91573","0.0-121.0","","<p style=""font-size: 48px;"">+</p>","iti","","","",""
"null","null","html-keyboard-response","122","92076","0.0-122.0","","<div class=""circle ready""></div>","ready","","","",""
"null","null","html-keyboard-response","123","93489","0.0-123.0","","","isi","","","",""
"null","null","html-keyboard-response","124","93991","0.0-124.0","","<div class=""circle set""></div>","set_on_1","","","",""
"null","null","html-keyboard-response","125","96077","0.0-125.0","","","set_gap","2083","","",""
"null","null","html-keyboard-response","126","96580","0.0-126.0","","<div class=""circle ready""></div>","set_on_2","","","",""
"1264"," ","html-keyboard-response","127","97844","0.0-127.0","","","go","","1410","1264","-146"
"null","null","html-keyboard-response","128","98346","0.0-128.0","","<div class=""circle go""></div>","feedback_circle","","","",""
"null","null","html-keyboard-response","129","98848","0.0-129.0","","<div class=""circle""></div>","feedback_circle","","","",""
"null","null","html-keyboard-response","130","99351","0.0-130.0","","
      <div style=""text-align:center;"">
        
        <p style=""font-size: 16px; text-align: center;"">Trial 13 of 300</p>
        <p><strong>Error:</strong> -146 ms</p>

        <div style=""position: relative; width: 80%; height: 40px; margin: 40px auto;"">
          <div style=""height: 8px; background: linear-gradient(to right, #3498db, #ccc, #e74c3c); border-radius: 4px;""></div>
          <div style=""position: absolute; left: 35.4%; top: -6px; transform: translateX(-50%);"">
            <div style=""width: 14px; height: 14px; background: black; border-radius: 50%; border: 2px solid white;""></div>
          </div>
          <div style=""position: absolute; left: 0%; top: 20px; font-size: 12px;"">–500 ms</div>
          <div style=""position: absolute; left: 50%; top: 20px; font-size: 12px; transform: translateX(-50%);"">0</div>
          <div style=""position: absolute; right: 0%; top: 20px; font-size: 12px;"">+500 ms</div>
        </div>

        <p>Press any key to continue.</p>
      </div>
    ","feedback_text","","","",""
"null","null","html-keyboard-response","131","99854","0.0-131.0","","<p style=""font-size: 48px;"">+</p>","iti","","","",""
"null","null","html-keyboard-response","132","100357","0.0-132.0","","<div class=""circle ready""></div>","ready","","","",""
"null","null","html-keyboard-response","133","101599","0.0-133.0","","","isi","","","",""
"null","null","html-keyboard-response","134","102102","0.0-134.0","","<div class=""circle set""></div>","set_on_1","","","",""
"null","null","html-keyboard-response","135","102355","0.0-135.0","","","set_gap","250","","",""
"null","null","html-keyboard-response","136","102857","0.0-136.0","","<div class=""circle ready""></div>","set_on_2","","","",""
"890"," ","html-keyboard-response","137","103748","0.0-137.0","","","go","","1240","890","-350"
"null","null","html-keyboard-response","138","104249","0.0-138.0","","<div class=""circle go""></div>","feedback_circle","","","",""
"null","null","html-keyboard-response","139","104752","0.0-139.0","","<div class=""circle""></div>","feedback_circle","","","",""
"null","null","html-keyboard-response","140","105255","0.0-140.0","","
      <div style=""text-align:center;"">
        
        <p style=""font-size: 16px; text-align: center;"">Trial 14 of 300</p>
        <p><strong>Error:</strong> -350 ms</p>

        <div style=""position: relative; width: 80%; height: 40px; margin: 40px auto;"">
          <div style=""height: 8px; background: linear-gradient(to right, #3498db, #ccc, #e74c3c); border-radius: 4px;""></div>
          <div style=""position: absolute; left: 15%; top: -6px; transform: translateX(-50%);"">
            <div style=""width: 14px; height: 14px; background: black; border-radius: 50%; border: 2px solid white;""></div>
          </div>
          <div style=""position: absolute; left: 0%; top: 20px; font-size: 12px;"">–500 ms</div>
          <div style=""position: absolute; left: 50%; top: 20px; font-size: 12px; transform: translateX(-50%);"">0</div>
          <div style=""position: absolute; right: 0%; top: 20px; font-size: 12px;"">+500 ms</div>
        </div>

        <p>Press any key to continue.</p>
      </div>
    ","feedback_text","","","",""
"null","null","html-keyboard-response","141","105758","0.0-141.0","","<p style=""font-size: 48px;"">+</p>","iti","","","",""
"null","null","html-keyboard-response","142","106261","0.0-142.0","","<div class=""circle ready""></div>","ready","","","",""
"null","null","html-keyboard-response","143","107424","0.0-143.0","","","isi","","","",""
"null","null","html-keyboard-response","144","107927","0.0-144.0","","<div class=""circle set""></div>","set_on_1","","","",""
"null","null","html-keyboard-response","145","108179","0.0-145.0","","","set_gap","250","","",""
"null","null","html-keyboard-response","146","108682","0.0-146.0","","<div class=""circle ready""></div>","set_on_2","","","",""
"991"," ","html-keyboard-response","147","109674","0.0-147.0","","","go","","1160","991","-169"
"null","null","html-keyboard-response","148","110176","0.0-148.0","","<div class=""circle go""></div>","feedback_circle","","","",""
"null","null","html-keyboard-response","149","110679","0.0-149.0","","<div class=""circle""></div>","feedback_circle","","","",""
"null","null","html-keyboard-response","150","111182","0.0-150.0","","
      <div style=""text-align:center;"">
        
        <p style=""font-size: 16px; text-align: center;"">Trial 15 of 300</p>
        <p><strong>Error:</strong> -169 ms</p>

        <div style=""position: relative; width: 80%; height: 40px; margin: 40px auto;"">
          <div style=""height: 8px; background: linear-gradient(to right, #3498db, #ccc, #e74c3c); border-radius: 4px;""></div>
          <div style=""position: absolute; left: 33.1%; top: -6px; transform: translateX(-50%);"">
            <div style=""width: 14px; height: 14px; background: black; border-radius: 50%; border: 2px solid white;""></div>
          </div>
          <div style=""position: absolute; left: 0%; top: 20px; font-size: 12px;"">–500 ms</div>
          <div style=""position: absolute; left: 50%; top: 20px; font-size: 12px; transform: translateX(-50%);"">0</div>
          <div style=""position: absolute; right: 0%; top: 20px; font-size: 12px;"">+500 ms</div>
        </div>

        <p>Press any key to continue.</p>
      </div>
    ","feedback_text","","","",""
"null","null","html-keyboard-response","151","111685","0.0-151.0","","<p style=""font-size: 48px;"">+</p>","iti","","","",""
"null","null","html-keyboard-response","152","112188","0.0-152.0","","<div class=""circle ready""></div>","ready","","","",""
"null","null","html-keyboard-response","153","113181","0.0-153.0","","","isi","","","",""
"null","null","html-keyboard-response","154","113683","0.0-154.0","","<div class=""circle set""></div>","set_on_1","","","",""
"null","null","html-keyboard-response","155","114854","0.0-155.0","","","set_gap","1167","","",""
"null","null","html-keyboard-response","156","115356","0.0-156.0","","<div class=""circle ready""></div>","set_on_2","","","",""
"994"," ","html-keyboard-response","157","116351","0.0-157.0","","","go","","990","994","4"
"null","null","html-keyboard-response","158","116852","0.0-158.0","","<div class=""circle go""></div>","feedback_circle","","","",""
"null","null","html-keyboard-response","159","117354","0.0-159.0","","<div class=""circle""></div>","feedback_circle","","","",""
"null","null","html-keyboard-response","160","117858","0.0-160.0","","
      <div style=""text-align:center;"">
        
        <p style=""font-size: 16px; text-align: center;"">Trial 16 of 300</p>
        <p><strong>Error:</strong> +4 ms</p>

        <div style=""position: relative; width: 80%; height: 40px; margin: 40px auto;"">
          <div style=""height: 8px; background: linear-gradient(to right, #3498db, #ccc, #e74c3c); border-radius: 4px;""></div>
          <div style=""position: absolute; left: 50.4%; top: -6px; transform: translateX(-50%);"">
            <div style=""width: 14px; height: 14px; background: black; border-radius: 50%; border: 2px solid white;""></div>
          </div>
          <div style=""position: absolute; left: 0%; top: 20px; font-size: 12px;"">–500 ms</div>
          <div style=""position: absolute; left: 50%; top: 20px; font-size: 12px; transform: translateX(-50%);"">0</div>
          <div style=""position: absolute; right: 0%; top: 20px; font-size: 12px;"">+500 ms</div>
        </div>

        <p>Press any key to continue.</p>
      </div>
    ","feedback_text","","","",""
"null","null","html-keyboard-response","161","118359","0.0-161.0","","<p style=""font-size: 48px;"">+</p>","iti","","","",""
"null","null","html-keyboard-response","162","118862","0.0-162.0","","<div class=""circle ready""></div>","ready","","","",""
"null","null","html-keyboard-response","163","120195","0.0-163.0","","","isi","","","",""
"null","null","html-keyboard-response","164","120698","0.0-164.0","","<div class=""circle set""></div>","set_on_1","","","",""
"null","null","html-keyboard-response","165","121867","0.0-165.0","","","set_gap","1167","","",""
"null","null","html-keyboard-response","166","122370","0.0-166.0","","<div class=""circle ready""></div>","set_on_2","","","",""
"1114"," ","html-keyboard-response","167","123486","0.0-167.0","","","go","","1330","1114","-216"
"null","null","html-keyboard-response","168","123987","0.0-168.0","","<div class=""circle go""></div>","feedback_circle","","","",""
"null","null","html-keyboard-response","169","124490","0.0-169.0","","<div class=""circle""></div>","feedback_circle","","","",""
"null","null","html-keyboard-response","170","124993","0.0-170.0","","
      <div style=""text-align:center;"">
        
        <p style=""font-size: 16px; text-align: center;"">Trial 17 of 300</p>
        <p><strong>Error:</strong> -216 ms</p>

        <div style=""position: relative; width: 80%; height: 40px; margin: 40px auto;"">
          <div style=""height: 8px; background: linear-gradient(to right, #3498db, #ccc, #e74c3c); border-radius: 4px;""></div>
          <div style=""position: absolute; left: 28.4%; top: -6px; transform: translateX(-50%);"">
            <div style=""width: 14px; height: 14px; background: black; border-radius: 50%; border: 2px solid white;""></div>
          </div>
          <div style=""position: absolute; left: 0%; top: 20px; font-size: 12px;"">–500 ms</div>
          <div style=""position: absolute; left: 50%; top: 20px; font-size: 12px; transform: translateX(-50%);"">0</div>
          <div style=""position: absolute; right: 0%; top: 20px; font-size: 12px;"">+500 ms</div>
        </div>

        <p>Press any key to continue.</p>
      </div>
    ","feedback_text","","","",""
"null","null","html-keyboard-response","171","125496","0.0-171.0","","<p style=""font-size: 48px;"">+</p>","iti","","","",""
"null","null","html-keyboard-response","172","125998","0.0-172.0","","<div class=""circle ready""></div>","ready","","","",""
"null","null","html-keyboard-response","173","126901","0.0-173.0","","","isi","","","",""
"null","null","html-keyboard-response","174","127404","0.0-174.0","","<div class=""circle set""></div>","set_on_1","","","",""
"null","null","html-keyboard-response","175","127657","0.0-175.0","","","set_gap","250","","",""
"null","null","html-keyboard-response","176","128160","0.0-176.0","","<div class=""circle ready""></div>","set_on_2","","","",""
"923"," ","html-keyboard-response","177","129084","0.0-177.0","","","go","","900","923","23"
"null","null","html-keyboard-response","178","129585","0.0-178.0","","<div class=""circle go""></div>","feedback_circle","","","",""
"null","null","html-keyboard-response","179","130086","0.0-179.0","","<div class=""circle""></div>","feedback_circle","","","",""
"null","null","html-keyboard-response","180","130590","0.0-180.0","","
      <div style=""text-align:center;"">
        
        <p style=""font-size: 16px; text-align: center;"">Trial 18 of 300</p>
        <p><strong>Error:</strong> +23 ms</p>

        <div style=""position: relative; width: 80%; height: 40px; margin: 40px auto;"">
          <div style=""height: 8px; background: linear-gradient(to right, #3498db, #ccc, #e74c3c); border-radius: 4px;""></div>
          <div style=""position: absolute; left: 52.300000000000004%; top: -6px; transform: translateX(-50%);"">
            <div style=""width: 14px; height: 14px; background: black; border-radius: 50%; border: 2px solid white;""></div>
          </div>
          <div style=""position: absolute; left: 0%; top: 20px; font-size: 12px;"">–500 ms</div>
          <div style=""position: absolute; left: 50%; top: 20px; font-size: 12px; transform: translateX(-50%);"">0</div>
          <div style=""position: absolute; right: 0%; top: 20px; font-size: 12px;"">+500 ms</div>
        </div>

        <p>Press any key to continue.</p>
      </div>
    ","feedback_text","","","",""
"null","null","html-keyboard-response","181","131091","0.0-181.0","","<p style=""font-size: 48px;"">+</p>","iti","","","",""
"null","null","html-keyboard-response","182","131594","0.0-182.0","","<div class=""circle ready""></div>","ready","","","",""
"null","null","html-keyboard-response","183","132496","0.0-183.0","","","isi","","","",""
"null","null","html-keyboard-response","184","132998","0.0-184.0","","<div class=""circle set""></div>","set_on_1","","","",""
"null","null","html-keyboard-response","185","135084","0.0-185.0","","","set_gap","2083","","",""
"null","null","html-keyboard-response","186","135586","0.0-186.0","","<div class=""circle ready""></div>","set_on_2","","","",""
"1116"," ","html-keyboard-response","187","136704","0.0-187.0","","","go","","900","1116","216"
"null","null","html-keyboard-response","188","137206","0.0-188.0","","<div class=""circle go""></div>","feedback_circle","","","",""
"null","null","html-keyboard-response","189","137708","0.0-189.0","","<div class=""circle""></div>","feedback_circle","","","",""
"null","null","html-keyboard-response","190","138212","0.0-190.0","","
      <div style=""text-align:center;"">
        
        <p style=""font-size: 16px; text-align: center;"">Trial 19 of 300</p>
        <p><strong>Error:</strong> +216 ms</p>

        <div style=""position: relative; width: 80%; height: 40px; margin: 40px auto;"">
          <div style=""height: 8px; background: linear-gradient(to right, #3498db, #ccc, #e74c3c); border-radius: 4px;""></div>
          <div style=""position: absolute; left: 71.6%; top: -6px; transform: translateX(-50%);"">
            <div style=""width: 14px; height: 14px; background: black; border-radius: 50%; border: 2px solid white;""></div>
          </div>
          <div style=""position: absolute; left: 0%; top: 20px; font-size: 12px;"">–500 ms</div>
          <div style=""position: absolute; left: 50%; top: 20px; font-size: 12px; transform: translateX(-50%);"">0</div>
          <div style=""position: absolute; right: 0%; top: 20px; font-size: 12px;"">+500 ms</div>
        </div>

        <p>Press any key to continue.</p>
      </div>
    ","feedback_text","","","",""
"null","null","html-keyboard-response","191","138715","0.0-191.0","","<p style=""font-size: 48px;"">+</p>","iti","","","",""
"null","null","html-keyboard-response","192","139217","0.0-192.0","","<div class=""circle ready""></div>","ready","","","",""
"null","null","html-keyboard-response","193","140719","0.0-193.0","","","isi","","","",""
"null","null","html-keyboard-response","194","141222","0.0-194.0","","<div class=""circle set""></div>","set_on_1","","","",""
"null","null","html-keyboard-response","195","144225","0.0-195.0","","","set_gap","3000","","",""
"null","null","html-keyboard-response","196","144727","0.0-196.0","","<div class=""circle ready""></div>","set_on_2","","","",""
"1220"," ","html-keyboard-response","197","145948","0.0-197.0","","","go","","1500","1220","-280"
"null","null","html-keyboard-response","198","146450","0.0-198.0","","<div class=""circle go""></div>","feedback_circle","","","",""
"null","null","html-keyboard-response","199","146953","0.0-199.0","","<div class=""circle""></div>","feedback_circle","","","",""
"null","null","html-keyboard-response","200","147456","0.0-200.0","","
      <div style=""text-align:center;"">
        
        <p style=""font-size: 16px; text-align: center;"">Trial 20 of 300</p>
        <p><strong>Error:</strong> -280 ms</p>

        <div style=""position: relative; width: 80%; height: 40px; margin: 40px auto;"">
          <div style=""height: 8px; background: linear-gradient(to right, #3498db, #ccc, #e74c3c); border-radius: 4px;""></div>
          <div style=""position: absolute; left: 22%; top: -6px; transform: translateX(-50%);"">
            <div style=""width: 14px; height: 14px; background: black; border-radius: 50%; border: 2px solid white;""></div>
          </div>
          <div style=""position: absolute; left: 0%; top: 20px; font-size: 12px;"">–500 ms</div>
          <div style=""position: absolute; left: 50%; top: 20px; font-size: 12px; transform: translateX(-50%);"">0</div>
          <div style=""position: absolute; right: 0%; top: 20px; font-size: 12px;"">+500 ms</div>
        </div>

        <p>Press any key to continue.</p>
      </div>
    ","feedback_text","","","",""
"null","null","html-keyboard-response","201","147959","0.0-201.0","","<p style=""font-size: 48px;"">+</p>","iti","","","",""
"null","null","html-keyboard-response","202","148462","0.0-202.0","","<div class=""circle ready""></div>","ready","","","",""
"null","null","html-keyboard-response","203","149535","0.0-203.0","","","isi","","","",""
"null","null","html-keyboard-response","204","150037","0.0-204.0","","<div class=""circle set""></div>","set_on_1","","","",""
"null","null","html-keyboard-response","205","153040","0.0-205.0","","","set_gap","3000","","",""
"null","null","html-keyboard-response","206","153542","0.0-206.0","","<div class=""circle ready""></div>","set_on_2","","","",""
"1250"," ","html-keyboard-response","207","154793","0.0-207.0","","","go","","1070","1250","180"
"null","null","html-keyboard-response","208","155295","0.0-208.0","","<div class=""circle go""></div>","feedback_circle","","","",""
"null","null","html-keyboard-response","209","155797","0.0-209.0","","<div class=""circle""></div>","feedback_circle","","","",""
"null","null","html-keyboard-response","210","156301","0.0-210.0","","
      <div style=""text-align:center;"">
        
        <p style=""font-size: 16px; text-align: center;"">Trial 21 of 300</p>
        <p><strong>Error:</strong> +180 ms</p>

        <div style=""position: relative; width: 80%; height: 40px; margin: 40px auto;"">
          <div style=""height: 8px; background: linear-gradient(to right, #3498db, #ccc, #e74c3c); border-radius: 4px;""></div>
          <div style=""position: absolute; left: 68%; top: -6px; transform: translateX(-50%);"">
            <div style=""width: 14px; height: 14px; background: black; border-radius: 50%; border: 2px solid white;""></div>
          </div>
          <div style=""position: absolute; left: 0%; top: 20px; font-size: 12px;"">–500 ms</div>
          <div style=""position: absolute; left: 50%; top: 20px; font-size: 12px; transform: translateX(-50%);"">0</div>
          <div style=""position: absolute; right: 0%; top: 20px; font-size: 12px;"">+500 ms</div>
        </div>

        <p>Press any key to continue.</p>
      </div>
    ","feedback_text","","","",""
"null","null","html-keyboard-response","211","156804","0.0-211.0","","<p style=""font-size: 48px;"">+</p>","iti","","","",""
"null","null","html-keyboard-response","212","157307","0.0-212.0","","<div class=""circle ready""></div>","ready","","","",""
"null","null","html-keyboard-response","213","158379","0.0-213.0","","","isi","","","",""
"null","null","html-keyboard-response","214","158882","0.0-214.0","","<div class=""circle set""></div>","set_on_1","","","",""
"null","null","html-keyboard-response","215","160051","0.0-215.0","","","set_gap","1167","","",""
"null","null","html-keyboard-response","216","160553","0.0-216.0","","<div class=""circle ready""></div>","set_on_2","","","",""
"1201"," ","html-keyboard-response","217","161755","0.0-217.0","","","go","","1070","1201","131"
"null","null","html-keyboard-response","218","162257","0.0-218.0","","<div class=""circle go""></div>","feedback_circle","","","",""
"null","null","html-keyboard-response","219","162759","0.0-219.0","","<div class=""circle""></div>","feedback_circle","","","",""
"null","null","html-keyboard-response","220","163262","0.0-220.0","","
      <div style=""text-align:center;"">
        
        <p style=""font-size: 16px; text-align: center;"">Trial 22 of 300</p>
        <p><strong>Error:</strong> +131 ms</p>

        <div style=""position: relative; width: 80%; height: 40px; margin: 40px auto;"">
          <div style=""height: 8px; background: linear-gradient(to right, #3498db, #ccc, #e74c3c); border-radius: 4px;""></div>
          <div style=""position: absolute; left: 63.1%; top: -6px; transform: translateX(-50%);"">
            <div style=""width: 14px; height: 14px; background: black; border-radius: 50%; border: 2px solid white;""></div>
          </div>
          <div style=""position: absolute; left: 0%; top: 20px; font-size: 12px;"">–500 ms</div>
          <div style=""position: absolute; left: 50%; top: 20px; font-size: 12px; transform: translateX(-50%);"">0</div>
          <div style=""position: absolute; right: 0%; top: 20px; font-size: 12px;"">+500 ms</div>
        </div>

        <p>Press any key to continue.</p>
      </div>
    ","feedback_text","","","",""
"null","null","html-keyboard-response","221","163765","0.0-221.0","","<p style=""font-size: 48px;"">+</p>","iti","","","",""
"null","null","html-keyboard-response","222","164268","0.0-222.0","","<div class=""circle ready""></div>","ready","","","",""
"null","null","html-keyboard-response","223","165340","0.0-223.0","","","isi","","","",""
"null","null","html-keyboard-response","224","165843","0.0-224.0","","<div class=""circle set""></div>","set_on_1","","","",""
"null","null","html-keyboard-response","225","168845","0.0-225.0","","","set_gap","3000","","",""
"null","null","html-keyboard-response","226","169348","0.0-226.0","","<div class=""circle ready""></div>","set_on_2","","","",""
"1051"," ","html-keyboard-response","227","170400","0.0-227.0","","","go","","1070","1051","-19"
"null","null","html-keyboard-response","228","170902","0.0-228.0","","<div class=""circle go""></div>","feedback_circle","","","",""
"null","null","html-keyboard-response","229","171404","0.0-229.0","","<div class=""circle""></div>","feedback_circle","","","",""
"null","null","html-keyboard-response","230","171908","0.0-230.0","","
      <div style=""text-align:center;"">
        
        <p style=""font-size: 16px; text-align: center;"">Trial 23 of 300</p>
        <p><strong>Error:</strong> -19 ms</p>

        <div style=""position: relative; width: 80%; height: 40px; margin: 40px auto;"">
          <div style=""height: 8px; background: linear-gradient(to right, #3498db, #ccc, #e74c3c); border-radius: 4px;""></div>
          <div style=""position: absolute; left: 48.1%; top: -6px; transform: translateX(-50%);"">
            <div style=""width: 14px; height: 14px; background: black; border-radius: 50%; border: 2px solid white;""></div>
          </div>
          <div style=""position: absolute; left: 0%; top: 20px; font-size: 12px;"">–500 ms</div>
          <div style=""position: absolute; left: 50%; top: 20px; font-size: 12px; transform: translateX(-50%);"">0</div>
          <div style=""position: absolute; right: 0%; top: 20px; font-size: 12px;"">+500 ms</div>
        </div>

        <p>Press any key to continue.</p>
      </div>
    ","feedback_text","","","",""
"null","null","html-keyboard-response","231","172410","0.0-231.0","","<p style=""font-size: 48px;"">+</p>","iti","","","",""
"null","null","html-keyboard-response","232","172912","0.0-232.0","","<div class=""circle ready""></div>","ready","","","",""
"null","null","html-keyboard-response","233","174325","0.0-233.0","","","isi","","","",""
"null","null","html-keyboard-response","234","174826","0.0-234.0","","<div class=""circle set""></div>","set_on_1","","","",""
"null","null","html-keyboard-response","235","175079","0.0-235.0","","","set_gap","250","","",""
"null","null","html-keyboard-response","236","175581","0.0-236.0","","<div class=""circle ready""></div>","set_on_2","","","",""
"1217"," ","html-keyboard-response","237","176799","0.0-237.0","","","go","","1410","1217","-193"
"null","null","html-keyboard-response","238","177301","0.0-238.0","","<div class=""circle go""></div>","feedback_circle","","","",""
"null","null","html-keyboard-response","239","177803","0.0-239.0","","<div class=""circle""></div>","feedback_circle","","","",""
"null","null","html-keyboard-response","240","178306","0.0-240.0","","
      <div style=""text-align:center;"">
        
        <p style=""font-size: 16px; text-align: center;"">Trial 24 of 300</p>
        <p><strong>Error:</strong> -193 ms</p>

        <div style=""position: relative; width: 80%; height: 40px; margin: 40px auto;"">
          <div style=""height: 8px; background: linear-gradient(to right, #3498db, #ccc, #e74c3c); border-radius: 4px;""></div>
          <div style=""position: absolute; left: 30.7%; top: -6px; transform: translateX(-50%);"">
            <div style=""width: 14px; height: 14px; background: black; border-radius: 50%; border: 2px solid white;""></div>
          </div>
          <div style=""position: absolute; left: 0%; top: 20px; font-size: 12px;"">–500 ms</div>
          <div style=""position: absolute; left: 50%; top: 20px; font-size: 12px; transform: translateX(-50%);"">0</div>
          <div style=""position: absolute; right: 0%; top: 20px; font-size: 12px;"">+500 ms</div>
        </div>

        <p>Press any key to continue.</p>
      </div>
    ","feedback_text","","","",""
"null","null","html-keyboard-response","241","178808","0.0-241.0","","<p style=""font-size: 48px;"">+</p>","iti","","","",""
"null","null","html-keyboard-response","242","179311","0.0-242.0","","<div class=""circle ready""></div>","ready","","","",""
"null","null","html-keyboard-response","243","180473","0.0-243.0","","","isi","","","",""
"null","null","html-keyboard-response","244","180976","0.0-244.0","","<div class=""circle set""></div>","set_on_1","","","",""
"null","null","html-keyboard-response","245","181228","0.0-245.0","","","set_gap","250","","",""
"null","null","html-keyboard-response","246","181731","0.0-246.0","","<div class=""circle ready""></div>","set_on_2","","","",""
"1314"," ","html-keyboard-response","247","183045","0.0-247.0","","","go","","1160","1314","154"
"null","null","html-keyboard-response","248","183547","0.0-248.0","","<div class=""circle go""></div>","feedback_circle","","","",""
"null","null","html-keyboard-response","249","184049","0.0-249.0","","<div class=""circle""></div>","feedback_circle","","","",""
"null","null","html-keyboard-response","250","184553","0.0-250.0","","
      <div style=""text-align:center;"">
        
        <p style=""font-size: 16px; text-align: center;"">Trial 25 of 300</p>
        <p><strong>Error:</strong> +154 ms</p>

        <div style=""position: relative; width: 80%; height: 40px; margin: 40px auto;"">
          <div style=""height: 8px; background: linear-gradient(to right, #3498db, #ccc, #e74c3c); border-radius: 4px;""></div>
          <div style=""position: absolute; left: 65.4%; top: -6px; transform: translateX(-50%);"">
            <div style=""width: 14px; height: 14px; background: black; border-radius: 50%; border: 2px solid white;""></div>
          </div>
          <div style=""position: absolute; left: 0%; top: 20px; font-size: 12px;"">–500 ms</div>
          <div style=""position: absolute; left: 50%; top: 20px; font-size: 12px; transform: translateX(-50%);"">0</div>
          <div style=""position: absolute; right: 0%; top: 20px; font-size: 12px;"">+500 ms</div>
        </div>

        <p>Press any key to continue.</p>
      </div>
    ","feedback_text","","","",""
"null","null","html-keyboard-response","251","185055","0.0-251.0","","<p style=""font-size: 48px;"">+</p>","iti","","","",""
"null","null","html-keyboard-response","252","185558","0.0-252.0","","<div class=""circle ready""></div>","ready","","","",""
"null","null","html-keyboard-response","253","186800","0.0-253.0","","","isi","","","",""
"null","null","html-keyboard-response","254","187303","0.0-254.0","","<div class=""circle set""></div>","set_on_1","","","",""
"null","null","html-keyboard-response","255","187556","0.0-255.0","","","set_gap","250","","",""
"null","null","html-keyboard-response","256","188058","0.0-256.0","","<div class=""circle ready""></div>","set_on_2","","","",""
"1036"," ","html-keyboard-response","257","189095","0.0-257.0","","","go","","1240","1036","-204"
"null","null","html-keyboard-response","258","189597","0.0-258.0","","<div class=""circle go""></div>","feedback_circle","","","",""
"null","null","html-keyboard-response","259","190099","0.0-259.0","","<div class=""circle""></div>","feedback_circle","","","",""
"null","null","html-keyboard-response","260","190603","0.0-260.0","","
      <div style=""text-align:center;"">
        
        <p style=""font-size: 16px; text-align: center;"">Trial 26 of 300</p>
        <p><strong>Error:</strong> -204 ms</p>

        <div style=""position: relative; width: 80%; height: 40px; margin: 40px auto;"">
          <div style=""height: 8px; background: linear-gradient(to right, #3498db, #ccc, #e74c3c); border-radius: 4px;""></div>
          <div style=""position: absolute; left: 29.599999999999998%; top: -6px; transform: translateX(-50%);"">
            <div style=""width: 14px; height: 14px; background: black; border-radius: 50%; border: 2px solid white;""></div>
          </div>
          <div style=""position: absolute; left: 0%; top: 20px; font-size: 12px;"">–500 ms</div>
          <div style=""position: absolute; left: 50%; top: 20px; font-size: 12px; transform: translateX(-50%);"">0</div>
          <div style=""position: absolute; right: 0%; top: 20px; font-size: 12px;"">+500 ms</div>
        </div>

        <p>Press any key to continue.</p>
      </div>
    ","feedback_text","","","",""
"null","null","html-keyboard-response","261","191104","0.0-261.0","","<p style=""font-size: 48px;"">+</p>","iti","","","",""
"null","null","html-keyboard-response","262","191607","0.0-262.0","","<div class=""circle ready""></div>","ready","","","",""
"null","null","html-keyboard-response","263","192939","0.0-263.0","","","isi","","","",""
"null","null","html-keyboard-response","264","193442","0.0-264.0","","<div class=""circle set""></div>","set_on_1","","","",""
"null","null","html-keyboard-response","265","193695","0.0-265.0","","","set_gap","250","","",""
"null","null","html-keyboard-response","266","194197","0.0-266.0","","<div class=""circle ready""></div>","set_on_2","","","",""
"1099"," ","html-keyboard-response","267","195297","0.0-267.0","","","go","","1330","1099","-231"
"null","null","html-keyboard-response","268","195799","0.0-268.0","","<div class=""circle go""></div>","feedback_circle","","","",""
"null","null","html-keyboard-response","269","196301","0.0-269.0","","<div class=""circle""></div>","feedback_circle","","","",""
"null","null","html-keyboard-response","270","196805","0.0-270.0","","
      <div style=""text-align:center;"">
        
        <p style=""font-size: 16px; text-align: center;"">Trial 27 of 300</p>
        <p><strong>Error:</strong> -231 ms</p>

        <div style=""position: relative; width: 80%; height: 40px; margin: 40px auto;"">
          <div style=""height: 8px; background: linear-gradient(to right, #3498db, #ccc, #e74c3c); border-radius: 4px;""></div>
          <div style=""position: absolute; left: 26.900000000000002%; top: -6px; transform: translateX(-50%);"">
            <div style=""width: 14px; height: 14px; background: black; border-radius: 50%; border: 2px solid white;""></div>
          </div>
          <div style=""position: absolute; left: 0%; top: 20px; font-size: 12px;"">–500 ms</div>
          <div style=""position: absolute; left: 50%; top: 20px; font-size: 12px; transform: translateX(-50%);"">0</div>
          <div style=""position: absolute; right: 0%; top: 20px; font-size: 12px;"">+500 ms</div>
        </div>

        <p>Press any key to continue.</p>
      </div>
    ","feedback_text","","","",""
"null","null","html-keyboard-response","271","197307","0.0-271.0","","<p style=""font-size: 48px;"">+</p>","iti","","","",""
"null","null","html-keyboard-response","272","197810","0.0-272.0","","<div class=""circle ready""></div>","ready","","","",""
"null","null","html-keyboard-response","273","198883","0.0-273.0","","","isi","","","",""
"null","null","html-keyboard-response","274","199385","0.0-274.0","","<div class=""circle set""></div>","set_on_1","","","",""
"null","null","html-keyboard-response","275","201470","0.0-275.0","","","set_gap","2083","","",""
"null","null","html-keyboard-response","276","201973","0.0-276.0","","<div class=""circle ready""></div>","set_on_2","","","",""
"1622"," ","html-keyboard-response","277","203596","0.0-277.0","","","go","","1070","1622","552"
"null","null","html-keyboard-response","278","204097","0.0-278.0","","<div class=""circle go""></div>","feedback_circle","","","",""
"null","null","html-keyboard-response","279","204600","0.0-279.0","","<div class=""circle""></div>","feedback_circle","","","",""
"null","null","html-keyboard-response","280","205103","0.0-280.0","","
      <div style=""text-align:center;"">
        
        <p style=""font-size: 16px; text-align: center;"">Trial 28 of 300</p>
        <p><strong>Error:</strong> +552 ms</p>

        <div style=""position: relative; width: 80%; height: 40px; margin: 40px auto;"">
          <div style=""height: 8px; background: linear-gradient(to right, #3498db, #ccc, #e74c3c); border-radius: 4px;""></div>
          <div style=""position: absolute; left: 100%; top: -6px; transform: translateX(-50%);"">
            <div style=""width: 14px; height: 14px; background: black; border-radius: 50%; border: 2px solid white;""></div>
          </div>
          <div style=""position: absolute; left: 0%; top: 20px; font-size: 12px;"">–500 ms</div>
          <div style=""position: absolute; left: 50%; top: 20px; font-size: 12px; transform: translateX(-50%);"">0</div>
          <div style=""position: absolute; right: 0%; top: 20px; font-size: 12px;"">+500 ms</div>
        </div>

        <p>Press any key to continue.</p>
      </div>
    ","feedback_text","","","",""
"null","null","html-keyboard-response","281","205605","0.0-281.0","","<p style=""font-size: 48px;"">+</p>","iti","","","",""
"null","null","html-keyboard-response","282","206108","0.0-282.0","","<div class=""circle ready""></div>","ready","","","",""
"null","null","html-keyboard-response","283","207011","0.0-283.0","","","isi","","","",""
"null","null","html-keyboard-response","284","207513","0.0-284.0","","<div class=""circle set""></div>","set_on_1","","","",""
"null","null","html-keyboard-response","285","210516","0.0-285.0","","","set_gap","3000","","",""
"null","null","html-keyboard-response","286","211019","0.0-286.0","","<div class=""circle ready""></div>","set_on_2","","","",""
"993"," ","html-keyboard-response","287","212013","0.0-287.0","","","go","","900","993","93"
"null","null","html-keyboard-response","288","212514","0.0-288.0","","<div class=""circle go""></div>","feedback_circle","","","",""
"null","null","html-keyboard-response","289","213016","0.0-289.0","","<div class=""circle""></div>","feedback_circle","","","",""
"null","null","html-keyboard-response","290","213519","0.0-290.0","","
      <div style=""text-align:center;"">
        
        <p style=""font-size: 16px; text-align: center;"">Trial 29 of 300</p>
        <p><strong>Error:</strong> +93 ms</p>

        <div style=""position: relative; width: 80%; height: 40px; margin: 40px auto;"">
          <div style=""height: 8px; background: linear-gradient(to right, #3498db, #ccc, #e74c3c); border-radius: 4px;""></div>
          <div style=""position: absolute; left: 59.3%; top: -6px; transform: translateX(-50%);"">
            <div style=""width: 14px; height: 14px; background: black; border-radius: 50%; border: 2px solid white;""></div>
          </div>
          <div style=""position: absolute; left: 0%; top: 20px; font-size: 12px;"">–500 ms</div>
          <div style=""position: absolute; left: 50%; top: 20px; font-size: 12px; transform: translateX(-50%);"">0</div>
          <div style=""position: absolute; right: 0%; top: 20px; font-size: 12px;"">+500 ms</div>
        </div>

        <p>Press any key to continue.</p>
      </div>
    ","feedback_text","","","",""
"null","null","html-keyboard-response","291","214021","0.0-291.0","","<p style=""font-size: 48px;"">+</p>","iti","","","",""
"null","null","html-keyboard-response","292","214523","0.0-292.0","","<div class=""circle ready""></div>","ready","","","",""
"null","null","html-keyboard-response","293","215515","0.0-293.0","","","isi","","","",""
"null","null","html-keyboard-response","294","216017","0.0-294.0","","<div class=""circle set""></div>","set_on_1","","","",""
"null","null","html-keyboard-response","295","216270","0.0-295.0","","","set_gap","250","","",""
"null","null","html-keyboard-response","296","216773","0.0-296.0","","<div class=""circle ready""></div>","set_on_2","","","",""
"974"," ","html-keyboard-response","297","217747","0.0-297.0","","","go","","990","974","-16"
"null","null","html-keyboard-response","298","218249","0.0-298.0","","<div class=""circle go""></div>","feedback_circle","","","",""
"null","null","html-keyboard-response","299","218751","0.0-299.0","","<div class=""circle""></div>","feedback_circle","","","",""
"null","null","html-keyboard-response","300","219253","0.0-300.0","","
      <div style=""text-align:center;"">
        
        <p style=""font-size: 16px; text-align: center;"">Trial 30 of 300</p>
        <p><strong>Error:</strong> -16 ms</p>

        <div style=""position: relative; width: 80%; height: 40px; margin: 40px auto;"">
          <div style=""height: 8px; background: linear-gradient(to right, #3498db, #ccc, #e74c3c); border-radius: 4px;""></div>
          <div style=""position: absolute; left: 48.4%; top: -6px; transform: translateX(-50%);"">
            <div style=""width: 14px; height: 14px; background: black; border-radius: 50%; border: 2px solid white;""></div>
          </div>
          <div style=""position: absolute; left: 0%; top: 20px; font-size: 12px;"">–500 ms</div>
          <div style=""position: absolute; left: 50%; top: 20px; font-size: 12px; transform: translateX(-50%);"">0</div>
          <div style=""position: absolute; right: 0%; top: 20px; font-size: 12px;"">+500 ms</div>
        </div>

        <p>Press any key to continue.</p>
      </div>
    ","feedback_text","","","",""
"null","null","html-keyboard-response","301","219755","0.0-301.0","","<p style=""font-size: 48px;"">+</p>","iti","","","",""
"null","null","html-keyboard-response","302","220257","0.0-302.0","","<div class=""circle ready""></div>","ready","","","",""
"null","null","html-keyboard-response","303","221419","0.0-303.0","","","isi","","","",""
"null","null","html-keyboard-response","304","221921","0.0-304.0","","<div class=""circle set""></div>","set_on_1","","","",""
"null","null","html-keyboard-response","305","223091","0.0-305.0","","","set_gap","1167","","",""
"null","null","html-keyboard-response","306","223593","0.0-306.0","","<div class=""circle ready""></div>","set_on_2","","","",""
"1567"," ","html-keyboard-response","307","225162","0.0-307.0","","","go","","1160","1567","407"
"null","null","html-keyboard-response","308","225663","0.0-308.0","","<div class=""circle go""></div>","feedback_circle","","","",""
"null","null","html-keyboard-response","309","226166","0.0-309.0","","<div class=""circle""></div>","feedback_circle","","","",""
"null","null","html-keyboard-response","310","226669","0.0-310.0","","
      <div style=""text-align:center;"">
        
        <p style=""font-size: 16px; text-align: center;"">Trial 31 of 300</p>
        <p><strong>Error:</strong> +407 ms</p>

        <div style=""position: relative; width: 80%; height: 40px; margin: 40px auto;"">
          <div style=""height: 8px; background: linear-gradient(to right, #3498db, #ccc, #e74c3c); border-radius: 4px;""></div>
          <div style=""position: absolute; left: 90.7%; top: -6px; transform: translateX(-50%);"">
            <div style=""width: 14px; height: 14px; background: black; border-radius: 50%; border: 2px solid white;""></div>
          </div>
          <div style=""position: absolute; left: 0%; top: 20px; font-size: 12px;"">–500 ms</div>
          <div style=""position: absolute; left: 50%; top: 20px; font-size: 12px; transform: translateX(-50%);"">0</div>
          <div style=""position: absolute; right: 0%; top: 20px; font-size: 12px;"">+500 ms</div>
        </div>

        <p>Press any key to continue.</p>
      </div>
    ","feedback_text","","","",""
"null","null","html-keyboard-response","311","227171","0.0-311.0","","<p style=""font-size: 48px;"">+</p>","iti","","","",""
"null","null","html-keyboard-response","312","227673","0.0-312.0","","<div class=""circle ready""></div>","ready","","","",""
"null","null","html-keyboard-response","313","229006","0.0-313.0","","","isi","","","",""
"null","null","html-keyboard-response","314","229509","0.0-314.0","","<div class=""circle set""></div>","set_on_1","","","",""
"null","null","html-keyboard-response","315","232511","0.0-315.0","","","set_gap","3000","","",""
"null","null","html-keyboard-response","316","233015","0.0-316.0","","<div class=""circle ready""></div>","set_on_2","","","",""
"1780"," ","html-keyboard-response","317","234795","0.0-317.0","","","go","","1330","1780","450"
"null","null","html-keyboard-response","318","235297","0.0-318.0","","<div class=""circle go""></div>","feedback_circle","","","",""
"null","null","html-keyboard-response","319","235800","0.0-319.0","","<div class=""circle""></div>","feedback_circle","","","",""
"null","null","html-keyboard-response","320","236303","0.0-320.0","","
      <div style=""text-align:center;"">
        
        <p style=""font-size: 16px; text-align: center;"">Trial 32 of 300</p>
        <p><strong>Error:</strong> +450 ms</p>

        <div style=""position: relative; width: 80%; height: 40px; margin: 40px auto;"">
          <div style=""height: 8px; background: linear-gradient(to right, #3498db, #ccc, #e74c3c); border-radius: 4px;""></div>
          <div style=""position: absolute; left: 95%; top: -6px; transform: translateX(-50%);"">
            <div style=""width: 14px; height: 14px; background: black; border-radius: 50%; border: 2px solid white;""></div>
          </div>
          <div style=""position: absolute; left: 0%; top: 20px; font-size: 12px;"">–500 ms</div>
          <div style=""position: absolute; left: 50%; top: 20px; font-size: 12px; transform: translateX(-50%);"">0</div>
          <div style=""position: absolute; right: 0%; top: 20px; font-size: 12px;"">+500 ms</div>
        </div>

        <p>Press any key to continue.</p>
      </div>
    ","feedback_text","","","",""
"null","null","html-keyboard-response","321","236805","0.0-321.0","","<p style=""font-size: 48px;"">+</p>","iti","","","",""
"null","null","html-keyboard-response","322","237308","0.0-322.0","","<div class=""circle ready""></div>","ready","","","",""
"null","null","html-keyboard-response","323","238640","0.0-323.0","","","isi","","","",""
"null","null","html-keyboard-response","324","239142","0.0-324.0","","<div class=""circle set""></div>","set_on_1","","","",""
"null","null","html-keyboard-response","325","240312","0.0-325.0","","","set_gap","1167","","",""
"null","null","html-keyboard-response","326","240815","0.0-326.0","","<div class=""circle ready""></div>","set_on_2","","","",""
"1440"," ","html-keyboard-response","327","242256","0.0-327.0","","","go","","1330","1440","110"
"null","null","html-keyboard-response","328","242757","0.0-328.0","","<div class=""circle go""></div>","feedback_circle","","","",""
"null","null","html-keyboard-response","329","243259","0.0-329.0","","<div class=""circle""></div>","feedback_circle","","","",""
"null","null","html-keyboard-response","330","243762","0.0-330.0","","
      <div style=""text-align:center;"">
        
        <p style=""font-size: 16px; text-align: center;"">Trial 33 of 300</p>
        <p><strong>Error:</strong> +110 ms</p>

        <div style=""position: relative; width: 80%; height: 40px; margin: 40px auto;"">
          <div style=""height: 8px; background: linear-gradient(to right, #3498db, #ccc, #e74c3c); border-radius: 4px;""></div>
          <div style=""position: absolute; left: 61%; top: -6px; transform: translateX(-50%);"">
            <div style=""width: 14px; height: 14px; background: black; border-radius: 50%; border: 2px solid white;""></div>
          </div>
          <div style=""position: absolute; left: 0%; top: 20px; font-size: 12px;"">–500 ms</div>
          <div style=""position: absolute; left: 50%; top: 20px; font-size: 12px; transform: translateX(-50%);"">0</div>
          <div style=""position: absolute; right: 0%; top: 20px; font-size: 12px;"">+500 ms</div>
        </div>

        <p>Press any key to continue.</p>
      </div>
    ","feedback_text","","","",""
"null","null","html-keyboard-response","331","244265","0.0-331.0","","<p style=""font-size: 48px;"">+</p>","iti","","","",""
"null","null","html-keyboard-response","332","244767","0.0-332.0","","<div class=""circle ready""></div>","ready","","","",""
"null","null","html-keyboard-response","333","245840","0.0-333.0","","","isi","","","",""
"null","null","html-keyboard-response","334","246342","0.0-334.0","","<div class=""circle set""></div>","set_on_1","","","",""
"null","null","html-keyboard-response","335","246595","0.0-335.0","","","set_gap","250","","",""
"null","null","html-keyboard-response","336","247097","0.0-336.0","","<div class=""circle ready""></div>","set_on_2","","","",""
"989"," ","html-keyboard-response","337","248087","0.0-337.0","","","go","","1070","989","-81"
"null","null","html-keyboard-response","338","248588","0.0-338.0","","<div class=""circle go""></div>","feedback_circle","","","",""
"null","null","html-keyboard-response","339","249091","0.0-339.0","","<div class=""circle""></div>","feedback_circle","","","",""
"null","null","html-keyboard-response","340","249594","0.0-340.0","","
      <div style=""text-align:center;"">
        
        <p style=""font-size: 16px; text-align: center;"">Trial 34 of 300</p>
        <p><strong>Error:</strong> -81 ms</p>

        <div style=""position: relative; width: 80%; height: 40px; margin: 40px auto;"">
          <div style=""height: 8px; background: linear-gradient(to right, #3498db, #ccc, #e74c3c); border-radius: 4px;""></div>
          <div style=""position: absolute; left: 41.9%; top: -6px; transform: translateX(-50%);"">
            <div style=""width: 14px; height: 14px; background: black; border-radius: 50%; border: 2px solid white;""></div>
          </div>
          <div style=""position: absolute; left: 0%; top: 20px; font-size: 12px;"">–500 ms</div>
          <div style=""position: absolute; left: 50%; top: 20px; font-size: 12px; transform: translateX(-50%);"">0</div>
          <div style=""position: absolute; right: 0%; top: 20px; font-size: 12px;"">+500 ms</div>
        </div>

        <p>Press any key to continue.</p>
      </div>
    ","feedback_text","","","",""
"null","null","html-keyboard-response","341","250097","0.0-341.0","","<p style=""font-size: 48px;"">+</p>","iti","","","",""
"null","null","html-keyboard-response","342","250599","0.0-342.0","","<div class=""circle ready""></div>","ready","","","",""
"null","null","html-keyboard-response","343","252011","0.0-343.0","","","isi","","","",""
"null","null","html-keyboard-response","344","252515","0.0-344.0","","<div class=""circle set""></div>","set_on_1","","","",""
"null","null","html-keyboard-response","345","252767","0.0-345.0","","","set_gap","250","","",""
"null","null","html-keyboard-response","346","253269","0.0-346.0","","<div class=""circle ready""></div>","set_on_2","","","",""
"1148"," ","html-keyboard-response","347","254419","0.0-347.0","","","go","","1410","1148","-262"
"null","null","html-keyboard-response","348","254920","0.0-348.0","","<div class=""circle go""></div>","feedback_circle","","","",""
"null","null","html-keyboard-response","349","255422","0.0-349.0","","<div class=""circle""></div>","feedback_circle","","","",""
"null","null","html-keyboard-response","350","255926","0.0-350.0","","
      <div style=""text-align:center;"">
        
        <p style=""font-size: 16px; text-align: center;"">Trial 35 of 300</p>
        <p><strong>Error:</strong> -262 ms</p>

        <div style=""position: relative; width: 80%; height: 40px; margin: 40px auto;"">
          <div style=""height: 8px; background: linear-gradient(to right, #3498db, #ccc, #e74c3c); border-radius: 4px;""></div>
          <div style=""position: absolute; left: 23.799999999999997%; top: -6px; transform: translateX(-50%);"">
            <div style=""width: 14px; height: 14px; background: black; border-radius: 50%; border: 2px solid white;""></div>
          </div>
          <div style=""position: absolute; left: 0%; top: 20px; font-size: 12px;"">–500 ms</div>
          <div style=""position: absolute; left: 50%; top: 20px; font-size: 12px; transform: translateX(-50%);"">0</div>
          <div style=""position: absolute; right: 0%; top: 20px; font-size: 12px;"">+500 ms</div>
        </div>

        <p>Press any key to continue.</p>
      </div>
    ","feedback_text","","","",""
"null","null","html-keyboard-response","351","256428","0.0-351.0","","<p style=""font-size: 48px;"">+</p>","iti","","","",""
"null","null","html-keyboard-response","352","256930","0.0-352.0","","<div class=""circle ready""></div>","ready","","","",""
"null","null","html-keyboard-response","353","258263","0.0-353.0","","","isi","","","",""
"null","null","html-keyboard-response","354","258765","0.0-354.0","","<div class=""circle set""></div>","set_on_1","","","",""
"null","null","html-keyboard-response","355","261768","0.0-355.0","","","set_gap","3000","","",""
"null","null","html-keyboard-response","356","262271","0.0-356.0","","<div class=""circle ready""></div>","set_on_2","","","",""
"1641"," ","html-keyboard-response","357","263913","0.0-357.0","","","go","","1330","1641","311"
"null","null","html-keyboard-response","358","264415","0.0-358.0","","<div class=""circle go""></div>","feedback_circle","","","",""
"null","null","html-keyboard-response","359","264917","0.0-359.0","","<div class=""circle""></div>","feedback_circle","","","",""
"null","null","html-keyboard-response","360","265420","0.0-360.0","","
      <div style=""text-align:center;"">
        
        <p style=""font-size: 16px; text-align: center;"">Trial 36 of 300</p>
        <p><strong>Error:</strong> +311 ms</p>

        <div style=""position: relative; width: 80%; height: 40px; margin: 40px auto;"">
          <div style=""height: 8px; background: linear-gradient(to right, #3498db, #ccc, #e74c3c); border-radius: 4px;""></div>
          <div style=""position: absolute; left: 81.10000000000001%; top: -6px; transform: translateX(-50%);"">
            <div style=""width: 14px; height: 14px; background: black; border-radius: 50%; border: 2px solid white;""></div>
          </div>
          <div style=""position: absolute; left: 0%; top: 20px; font-size: 12px;"">–500 ms</div>
          <div style=""position: absolute; left: 50%; top: 20px; font-size: 12px; transform: translateX(-50%);"">0</div>
          <div style=""position: absolute; right: 0%; top: 20px; font-size: 12px;"">+500 ms</div>
        </div>

        <p>Press any key to continue.</p>
      </div>
    ","feedback_text","","","",""
"null","null","html-keyboard-response","361","265923","0.0-361.0","","<p style=""font-size: 48px;"">+</p>","iti","","","",""
"null","null","html-keyboard-response","362","266426","0.0-362.0","","<div class=""circle ready""></div>","ready","","","",""
"null","null","html-keyboard-response","363","267418","0.0-363.0","","","isi","","","",""
"null","null","html-keyboard-response","364","267921","0.0-364.0","","<div class=""circle set""></div>","set_on_1","","","",""
"null","null","html-keyboard-response","365","269091","0.0-365.0","","","set_gap","1167","","",""
"null","null","html-keyboard-response","366","269593","0.0-366.0","","<div class=""circle ready""></div>","set_on_2","","","",""
"1037"," ","html-keyboard-response","367","270631","0.0-367.0","","","go","","990","1037","47"
"null","null","html-keyboard-response","368","271132","0.0-368.0","","<div class=""circle go""></div>","feedback_circle","","","",""
"null","null","html-keyboard-response","369","271634","0.0-369.0","","<div class=""circle""></div>","feedback_circle","","","",""
"null","null","html-keyboard-response","370","272138","0.0-370.0","","
      <div style=""text-align:center;"">
        
        <p style=""font-size: 16px; text-align: center;"">Trial 37 of 300</p>
        <p><strong>Error:</strong> +47 ms</p>

        <div style=""position: relative; width: 80%; height: 40px; margin: 40px auto;"">
          <div style=""height: 8px; background: linear-gradient(to right, #3498db, #ccc, #e74c3c); border-radius: 4px;""></div>
          <div style=""position: absolute; left: 54.7%; top: -6px; transform: translateX(-50%);"">
            <div style=""width: 14px; height: 14px; background: black; border-radius: 50%; border: 2px solid white;""></div>
          </div>
          <div style=""position: absolute; left: 0%; top: 20px; font-size: 12px;"">–500 ms</div>
          <div style=""position: absolute; left: 50%; top: 20px; font-size: 12px; transform: translateX(-50%);"">0</div>
          <div style=""position: absolute; right: 0%; top: 20px; font-size: 12px;"">+500 ms</div>
        </div>

        <p>Press any key to continue.</p>
      </div>
    ","feedback_text","","","",""
"null","null","html-keyboard-response","371","272640","0.0-371.0","","<p style=""font-size: 48px;"">+</p>","iti","","","",""
"null","null","html-keyboard-response","372","273143","0.0-372.0","","<div class=""circle ready""></div>","ready","","","",""
"null","null","html-keyboard-response","373","274555","0.0-373.0","","","isi","","","",""
"null","null","html-keyboard-response","374","275057","0.0-374.0","","<div class=""circle set""></div>","set_on_1","","","",""
"null","null","html-keyboard-response","375","275310","0.0-375.0","","","set_gap","250","","",""
"null","null","html-keyboard-response","376","275812","0.0-376.0","","<div class=""circle ready""></div>","set_on_2","","","",""
"975"," ","html-keyboard-response","377","276788","0.0-377.0","","","go","","1410","975","-435"
"null","null","html-keyboard-response","378","277289","0.0-378.0","","<div class=""circle go""></div>","feedback_circle","","","",""
"null","null","html-keyboard-response","379","277792","0.0-379.0","","<div class=""circle""></div>","feedback_circle","","","",""
"null","null","html-keyboard-response","380","278295","0.0-380.0","","
      <div style=""text-align:center;"">
        
        <p style=""font-size: 16px; text-align: center;"">Trial 38 of 300</p>
        <p><strong>Error:</strong> -435 ms</p>

        <div style=""position: relative; width: 80%; height: 40px; margin: 40px auto;"">
          <div style=""height: 8px; background: linear-gradient(to right, #3498db, #ccc, #e74c3c); border-radius: 4px;""></div>
          <div style=""position: absolute; left: 6.5%; top: -6px; transform: translateX(-50%);"">
            <div style=""width: 14px; height: 14px; background: black; border-radius: 50%; border: 2px solid white;""></div>
          </div>
          <div style=""position: absolute; left: 0%; top: 20px; font-size: 12px;"">–500 ms</div>
          <div style=""position: absolute; left: 50%; top: 20px; font-size: 12px; transform: translateX(-50%);"">0</div>
          <div style=""position: absolute; right: 0%; top: 20px; font-size: 12px;"">+500 ms</div>
        </div>

        <p>Press any key to continue.</p>
      </div>
    ","feedback_text","","","",""
"null","null","html-keyboard-response","381","278797","0.0-381.0","","<p style=""font-size: 48px;"">+</p>","iti","","","",""
"null","null","html-keyboard-response","382","279300","0.0-382.0","","<div class=""circle ready""></div>","ready","","","",""
"null","null","html-keyboard-response","383","280202","0.0-383.0","","","isi","","","",""
"null","null","html-keyboard-response","384","280704","0.0-384.0","","<div class=""circle set""></div>","set_on_1","","","",""
"null","null","html-keyboard-response","385","280956","0.0-385.0","","","set_gap","250","","",""
"null","null","html-keyboard-response","386","281458","0.0-386.0","","<div class=""circle ready""></div>","set_on_2","","","",""
"972"," ","html-keyboard-response","387","282430","0.0-387.0","","","go","","900","972","72"
"null","null","html-keyboard-response","388","282932","0.0-388.0","","<div class=""circle go""></div>","feedback_circle","","","",""
"null","null","html-keyboard-response","389","283435","0.0-389.0","","<div class=""circle""></div>","feedback_circle","","","",""
"null","null","html-keyboard-response","390","283938","0.0-390.0","","
      <div style=""text-align:center;"">
        
        <p style=""font-size: 16px; text-align: center;"">Trial 39 of 300</p>
        <p><strong>Error:</strong> +72 ms</p>

        <div style=""position: relative; width: 80%; height: 40px; margin: 40px auto;"">
          <div style=""height: 8px; background: linear-gradient(to right, #3498db, #ccc, #e74c3c); border-radius: 4px;""></div>
          <div style=""position: absolute; left: 57.199999999999996%; top: -6px; transform: translateX(-50%);"">
            <div style=""width: 14px; height: 14px; background: black; border-radius: 50%; border: 2px solid white;""></div>
          </div>
          <div style=""position: absolute; left: 0%; top: 20px; font-size: 12px;"">–500 ms</div>
          <div style=""position: absolute; left: 50%; top: 20px; font-size: 12px; transform: translateX(-50%);"">0</div>
          <div style=""position: absolute; right: 0%; top: 20px; font-size: 12px;"">+500 ms</div>
        </div>

        <p>Press any key to continue.</p>
      </div>
    ","feedback_text","","","",""
"null","null","html-keyboard-response","391","284441","0.0-391.0","","<p style=""font-size: 48px;"">+</p>","iti","","","",""
"null","null","html-keyboard-response","392","284944","0.0-392.0","","<div class=""circle ready""></div>","ready","","","",""
"null","null","html-keyboard-response","393","285847","0.0-393.0","","","isi","","","",""
"null","null","html-keyboard-response","394","286350","0.0-394.0","","<div class=""circle set""></div>","set_on_1","","","",""
"null","null","html-keyboard-response","395","288436","0.0-395.0","","","set_gap","2083","","",""
"null","null","html-keyboard-response","396","288938","0.0-396.0","","<div class=""circle ready""></div>","set_on_2","","","",""
"1124"," ","html-keyboard-response","397","290063","0.0-397.0","","","go","","900","1124","224"
"null","null","html-keyboard-response","398","290565","0.0-398.0","","<div class=""circle go""></div>","feedback_circle","","","",""
"null","null","html-keyboard-response","399","291067","0.0-399.0","","<div class=""circle""></div>","feedback_circle","","","",""
"null","null","html-keyboard-response","400","291571","0.0-400.0","","
      <div style=""text-align:center;"">
        
        <p style=""font-size: 16px; text-align: center;"">Trial 40 of 300</p>
        <p><strong>Error:</strong> +224 ms</p>

        <div style=""position: relative; width: 80%; height: 40px; margin: 40px auto;"">
          <div style=""height: 8px; background: linear-gradient(to right, #3498db, #ccc, #e74c3c); border-radius: 4px;""></div>
          <div style=""position: absolute; left: 72.39999999999999%; top: -6px; transform: translateX(-50%);"">
            <div style=""width: 14px; height: 14px; background: black; border-radius: 50%; border: 2px solid white;""></div>
          </div>
          <div style=""position: absolute; left: 0%; top: 20px; font-size: 12px;"">–500 ms</div>
          <div style=""position: absolute; left: 50%; top: 20px; font-size: 12px; transform: translateX(-50%);"">0</div>
          <div style=""position: absolute; right: 0%; top: 20px; font-size: 12px;"">+500 ms</div>
        </div>

        <p>Press any key to continue.</p>
      </div>
    ","feedback_text","","","",""
"null","null","html-keyboard-response","401","292074","0.0-401.0","","<p style=""font-size: 48px;"">+</p>","iti","","","",""
"null","null","html-keyboard-response","402","292576","0.0-402.0","","<div class=""circle ready""></div>","ready","","","",""
"null","null","html-keyboard-response","403","293818","0.0-403.0","","","isi","","","",""
"null","null","html-keyboard-response","404","294321","0.0-404.0","","<div class=""circle set""></div>","set_on_1","","","",""
"null","null","html-keyboard-response","405","295490","0.0-405.0","","","set_gap","1167","","",""
"null","null","html-keyboard-response","406","295993","0.0-406.0","","<div class=""circle ready""></div>","set_on_2","","","",""
"1430"," ","html-keyboard-response","407","297424","0.0-407.0","","","go","","1240","1430","190"
"null","null","html-keyboard-response","408","297926","0.0-408.0","","<div class=""circle go""></div>","feedback_circle","","","",""
"null","null","html-keyboard-response","409","298429","0.0-409.0","","<div class=""circle""></div>","feedback_circle","","","",""
"null","null","html-keyboard-response","410","298932","0.0-410.0","","
      <div style=""text-align:center;"">
        
        <p style=""font-size: 16px; text-align: center;"">Trial 41 of 300</p>
        <p><strong>Error:</strong> +190 ms</p>

        <div style=""position: relative; width: 80%; height: 40px; margin: 40px auto;"">
          <div style=""height: 8px; background: linear-gradient(to right, #3498db, #ccc, #e74c3c); border-radius: 4px;""></div>
          <div style=""position: absolute; left: 69%; top: -6px; transform: translateX(-50%);"">
            <div style=""width: 14px; height: 14px; background: black; border-radius: 50%; border: 2px solid white;""></div>
          </div>
          <div style=""position: absolute; left: 0%; top: 20px; font-size: 12px;"">–500 ms</div>
          <div style=""position: absolute; left: 50%; top: 20px; font-size: 12px; transform: translateX(-50%);"">0</div>
          <div style=""position: absolute; right: 0%; top: 20px; font-size: 12px;"">+500 ms</div>
        </div>

        <p>Press any key to continue.</p>
      </div>
    ","feedback_text","","","",""
"null","null","html-keyboard-response","411","299434","0.0-411.0","","<p style=""font-size: 48px;"">+</p>","iti","","","",""
"null","null","html-keyboard-response","412","299936","0.0-412.0","","<div class=""circle ready""></div>","ready","","","",""
"null","null","html-keyboard-response","413","301438","0.0-413.0","","","isi","","","",""
"null","null","html-keyboard-response","414","301940","0.0-414.0","","<div class=""circle set""></div>","set_on_1","","","",""
"null","null","html-keyboard-response","415","302193","0.0-415.0","","","set_gap","250","","",""
"null","null","html-keyboard-response","416","302696","0.0-416.0","","<div class=""circle ready""></div>","set_on_2","","","",""
"1046"," ","html-keyboard-response","417","303742","0.0-417.0","","","go","","1500","1046","-454"
"null","null","html-keyboard-response","418","304243","0.0-418.0","","<div class=""circle go""></div>","feedback_circle","","","",""
"null","null","html-keyboard-response","419","304746","0.0-419.0","","<div class=""circle""></div>","feedback_circle","","","",""
"null","null","html-keyboard-response","420","305249","0.0-420.0","","
      <div style=""text-align:center;"">
        
        <p style=""font-size: 16px; text-align: center;"">Trial 42 of 300</p>
        <p><strong>Error:</strong> -454 ms</p>

        <div style=""position: relative; width: 80%; height: 40px; margin: 40px auto;"">
          <div style=""height: 8px; background: linear-gradient(to right, #3498db, #ccc, #e74c3c); border-radius: 4px;""></div>
          <div style=""position: absolute; left: 4.6%; top: -6px; transform: translateX(-50%);"">
            <div style=""width: 14px; height: 14px; background: black; border-radius: 50%; border: 2px solid white;""></div>
          </div>
          <div style=""position: absolute; left: 0%; top: 20px; font-size: 12px;"">–500 ms</div>
          <div style=""position: absolute; left: 50%; top: 20px; font-size: 12px; transform: translateX(-50%);"">0</div>
          <div style=""position: absolute; right: 0%; top: 20px; font-size: 12px;"">+500 ms</div>
        </div>

        <p>Press any key to continue.</p>
      </div>
    ","feedback_text","","","",""
"null","null","html-keyboard-response","421","305751","0.0-421.0","","<p style=""font-size: 48px;"">+</p>","iti","","","",""
"null","null","html-keyboard-response","422","306253","0.0-422.0","","<div class=""circle ready""></div>","ready","","","",""
"null","null","html-keyboard-response","423","307415","0.0-423.0","","","isi","","","",""
"null","null","html-keyboard-response","424","307918","0.0-424.0","","<div class=""circle set""></div>","set_on_1","","","",""
"null","null","html-keyboard-response","425","310003","0.0-425.0","","","set_gap","2083","","",""
"null","null","html-keyboard-response","426","310506","0.0-426.0","","<div class=""circle ready""></div>","set_on_2","","","",""
"1750"," ","html-keyboard-response","427","312257","0.0-427.0","","","go","","1160","1750","590"
"null","null","html-keyboard-response","428","312758","0.0-428.0","","<div class=""circle go""></div>","feedback_circle","","","",""
"null","null","html-keyboard-response","429","313261","0.0-429.0","","<div class=""circle""></div>","feedback_circle","","","",""
"null","null","html-keyboard-response","430","313764","0.0-430.0","","
      <div style=""text-align:center;"">
        
        <p style=""font-size: 16px; text-align: center;"">Trial 43 of 300</p>
        <p><strong>Error:</strong> +590 ms</p>

        <div style=""position: relative; width: 80%; height: 40px; margin: 40px auto;"">
          <div style=""height: 8px; background: linear-gradient(to right, #3498db, #ccc, #e74c3c); border-radius: 4px;""></div>
          <div style=""position: absolute; left: 100%; top: -6px; transform: translateX(-50%);"">
            <div style=""width: 14px; height: 14px; background: black; border-radius: 50%; border: 2px solid white;""></div>
          </div>
          <div style=""position: absolute; left: 0%; top: 20px; font-size: 12px;"">–500 ms</div>
          <div style=""position: absolute; left: 50%; top: 20px; font-size: 12px; transform: translateX(-50%);"">0</div>
          <div style=""position: absolute; right: 0%; top: 20px; font-size: 12px;"">+500 ms</div>
        </div>

        <p>Press any key to continue.</p>
      </div>
    ","feedback_text","","","",""
"null","null","html-keyboard-response","431","314267","0.0-431.0","","<p style=""font-size: 48px;"">+</p>","iti","","","",""
"null","null","html-keyboard-response","432","314770","0.0-432.0","","<div class=""circle ready""></div>","ready","","","",""
"null","null","html-keyboard-response","433","315672","0.0-433.0","","","isi","","","",""
"null","null","html-keyboard-response","434","316175","0.0-434.0","","<div class=""circle set""></div>","set_on_1","","","",""
"null","null","html-keyboard-response","435","316427","0.0-435.0","","","set_gap","250","","",""
"null","null","html-keyboard-response","436","316930","0.0-436.0","","<div class=""circle ready""></div>","set_on_2","","","",""
"1000"," ","html-keyboard-response","437","317931","0.0-437.0","","","go","","900","1000","100"
"null","null","html-keyboard-response","438","318433","0.0-438.0","","<div class=""circle go""></div>","feedback_circle","","","",""
"null","null","html-keyboard-response","439","318936","0.0-439.0","","<div class=""circle""></div>","feedback_circle","","","",""
"null","null","html-keyboard-response","440","319439","0.0-440.0","","
      <div style=""text-align:center;"">
        
        <p style=""font-size: 16px; text-align: center;"">Trial 44 of 300</p>
        <p><strong>Error:</strong> +100 ms</p>

        <div style=""position: relative; width: 80%; height: 40px; margin: 40px auto;"">
          <div style=""height: 8px; background: linear-gradient(to right, #3498db, #ccc, #e74c3c); border-radius: 4px;""></div>
          <div style=""position: absolute; left: 60%; top: -6px; transform: translateX(-50%);"">
            <div style=""width: 14px; height: 14px; background: black; border-radius: 50%; border: 2px solid white;""></div>
          </div>
          <div style=""position: absolute; left: 0%; top: 20px; font-size: 12px;"">–500 ms</div>
          <div style=""position: absolute; left: 50%; top: 20px; font-size: 12px; transform: translateX(-50%);"">0</div>
          <div style=""position: absolute; right: 0%; top: 20px; font-size: 12px;"">+500 ms</div>
        </div>

        <p>Press any key to continue.</p>
      </div>
    ","feedback_text","","","",""
"null","null","html-keyboard-response","441","319942","0.0-441.0","","<p style=""font-size: 48px;"">+</p>","iti","","","",""
"null","null","html-keyboard-response","442","320444","0.0-442.0","","<div class=""circle ready""></div>","ready","","","",""
"null","null","html-keyboard-response","443","321857","0.0-443.0","","","isi","","","",""
"null","null","html-keyboard-response","444","322359","0.0-444.0","","<div class=""circle set""></div>","set_on_1","","","",""
"null","null","html-keyboard-response","445","322611","0.0-445.0","","","set_gap","250","","",""
"null","null","html-keyboard-response","446","323114","0.0-446.0","","<div class=""circle ready""></div>","set_on_2","","","",""
"1116"," ","html-keyboard-response","447","324231","0.0-447.0","","","go","","1410","1116","-294"
"null","null","html-keyboard-response","448","324733","0.0-448.0","","<div class=""circle go""></div>","feedback_circle","","","",""
"null","null","html-keyboard-response","449","325236","0.0-449.0","","<div class=""circle""></div>","feedback_circle","","","",""
"null","null","html-keyboard-response","450","325739","0.0-450.0","","
      <div style=""text-align:center;"">
        
        <p style=""font-size: 16px; text-align: center;"">Trial 45 of 300</p>
        <p><strong>Error:</strong> -294 ms</p>

        <div style=""position: relative; width: 80%; height: 40px; margin: 40px auto;"">
          <div style=""height: 8px; background: linear-gradient(to right, #3498db, #ccc, #e74c3c); border-radius: 4px;""></div>
          <div style=""position: absolute; left: 20.599999999999998%; top: -6px; transform: translateX(-50%);"">
            <div style=""width: 14px; height: 14px; background: black; border-radius: 50%; border: 2px solid white;""></div>
          </div>
          <div style=""position: absolute; left: 0%; top: 20px; font-size: 12px;"">–500 ms</div>
          <div style=""position: absolute; left: 50%; top: 20px; font-size: 12px; transform: translateX(-50%);"">0</div>
          <div style=""position: absolute; right: 0%; top: 20px; font-size: 12px;"">+500 ms</div>
        </div>

        <p>Press any key to continue.</p>
      </div>
    ","feedback_text","","","",""
"null","null","html-keyboard-response","451","326241","0.0-451.0","","<p style=""font-size: 48px;"">+</p>","iti","","","",""
"null","null","html-keyboard-response","452","326744","0.0-452.0","","<div class=""circle ready""></div>","ready","","","",""
"null","null","html-keyboard-response","453","327646","0.0-453.0","","","isi","","","",""
"null","null","html-keyboard-response","454","328149","0.0-454.0","","<div class=""circle set""></div>","set_on_1","","","",""
"null","null","html-keyboard-response","455","329318","0.0-455.0","","","set_gap","1167","","",""
"null","null","html-keyboard-response","456","329821","0.0-456.0","","<div class=""circle ready""></div>","set_on_2","","","",""
"1427"," ","html-keyboard-response","457","331250","0.0-457.0","","","go","","900","1427","527"
