"rt","response","trial_type","trial_index","time_elapsed","internal_node_id","subject_ID","stimulus","phase","set_duration","target_interval","reproduced_interval","reproduction_error"
"43147","{""subject_id"":""adi""}","survey-text","0","43161","0.0-0.0","","","","","","",""
"726"," ","html-keyboard-response","1","43890","0.0-1.0","","
      <p>Ready-Set-Go Task:</p>
      <ul style=""text-align:left; max-width:600px; margin:auto;"">
        <li>First, a <strong>red circle (""Ready"")</strong> appears</li>
        <li>Then, an <strong>orange circle (""Set"")</strong> appears after a delay</li>
        <li>You must <strong>press SPACE</strong> after an equal delay</li>
        <li>Then, a <strong>green circle (""Go"")</strong> appears</li>
        <li>You'll get feedback for the first 5 trials.</li>
      </ul>
      <p>Press any key to begin.</p>
    ","","","","",""
"null","null","html-keyboard-response","2","44393","0.0-2.0","","<div class=""circle ready""></div>","ready","","","",""
"null","null","html-keyboard-response","3","45126","0.0-3.0","","","isi","","","",""
"null","null","html-keyboard-response","4","45629","0.0-4.0","","<div class=""circle set""></div>","set","500","","",""
"705"," ","html-keyboard-response","5","46336","0.0-5.0","","","go","","730","705","-25"
"null","null","html-keyboard-response","6","46838","0.0-6.0","","<div class=""circle go""></div>","feedback_circle","","","",""
"null","null","html-keyboard-response","7","47342","0.0-7.0","","
      <div style=""text-align:center;"">
        
        <p><strong>Error:</strong> -25 ms</p>

        <div style=""position: relative; width: 80%; height: 40px; margin: 40px auto;"">
          <div style=""height: 8px; background: linear-gradient(to right, #3498db, #ccc, #e74c3c); border-radius: 4px;""></div>
          <div style=""position: absolute; left: 47.5%; top: -6px; transform: translateX(-50%);"">
            <div style=""width: 14px; height: 14px; background: black; border-radius: 50%; border: 2px solid white;""></div>
          </div>
          <div style=""position: absolute; left: 0%; top: 20px; font-size: 12px;"">–500 ms</div>
          <div style=""position: absolute; left: 50%; top: 20px; font-size: 12px; transform: translateX(-50%);"">0</div>
          <div style=""position: absolute; right: 0%; top: 20px; font-size: 12px;"">+500 ms</div>
        </div>

        <p>Press any key to continue.</p>
      </div>
    ","feedback_text","","","",""
"null","null","html-keyboard-response","8","48343","0.0-8.0","","<p style=""font-size: 48px;"">+</p>","iti","","","",""
"null","null","html-keyboard-response","9","48847","0.0-9.0","","<div class=""circle ready""></div>","ready","","","",""
"null","null","html-keyboard-response","10","49640","0.0-10.0","","","isi","","","",""
"null","null","html-keyboard-response","11","50143","0.0-11.0","","<div class=""circle set""></div>","set","500","","",""
"758"," ","html-keyboard-response","12","50903","0.0-12.0","","","go","","790","758","-32"
"null","null","html-keyboard-response","13","51404","0.0-13.0","","<div class=""circle go""></div>","feedback_circle","","","",""
"null","null","html-keyboard-response","14","51908","0.0-14.0","","
      <div style=""text-align:center;"">
        
        <p><strong>Error:</strong> -32 ms</p>

        <div style=""position: relative; width: 80%; height: 40px; margin: 40px auto;"">
          <div style=""height: 8px; background: linear-gradient(to right, #3498db, #ccc, #e74c3c); border-radius: 4px;""></div>
          <div style=""position: absolute; left: 46.800000000000004%; top: -6px; transform: translateX(-50%);"">
            <div style=""width: 14px; height: 14px; background: black; border-radius: 50%; border: 2px solid white;""></div>
          </div>
          <div style=""position: absolute; left: 0%; top: 20px; font-size: 12px;"">–500 ms</div>
          <div style=""position: absolute; left: 50%; top: 20px; font-size: 12px; transform: translateX(-50%);"">0</div>
          <div style=""position: absolute; right: 0%; top: 20px; font-size: 12px;"">+500 ms</div>
        </div>

        <p>Press any key to continue.</p>
      </div>
    ","feedback_text","","","",""
"null","null","html-keyboard-response","15","52911","0.0-15.0","","<p style=""font-size: 48px;"">+</p>","iti","","","",""
"null","null","html-keyboard-response","16","53413","0.0-16.0","","<div class=""circle ready""></div>","ready","","","",""
"null","null","html-keyboard-response","17","54436","0.0-17.0","","","isi","","","",""
"null","null","html-keyboard-response","18","54939","0.0-18.0","","<div class=""circle set""></div>","set","500","","",""
"1139"," ","html-keyboard-response","19","56079","0.0-19.0","","","go","","1020","1139","119"
"null","null","html-keyboard-response","20","56581","0.0-20.0","","<div class=""circle go""></div>","feedback_circle","","","",""
"null","null","html-keyboard-response","21","57084","0.0-21.0","","
      <div style=""text-align:center;"">
        
        <p><strong>Error:</strong> +119 ms</p>

        <div style=""position: relative; width: 80%; height: 40px; margin: 40px auto;"">
          <div style=""height: 8px; background: linear-gradient(to right, #3498db, #ccc, #e74c3c); border-radius: 4px;""></div>
          <div style=""position: absolute; left: 61.9%; top: -6px; transform: translateX(-50%);"">
            <div style=""width: 14px; height: 14px; background: black; border-radius: 50%; border: 2px solid white;""></div>
          </div>
          <div style=""position: absolute; left: 0%; top: 20px; font-size: 12px;"">–500 ms</div>
          <div style=""position: absolute; left: 50%; top: 20px; font-size: 12px; transform: translateX(-50%);"">0</div>
          <div style=""position: absolute; right: 0%; top: 20px; font-size: 12px;"">+500 ms</div>
        </div>

        <p>Press any key to continue.</p>
      </div>
    ","feedback_text","","","",""
"null","null","html-keyboard-response","22","58086","0.0-22.0","","<p style=""font-size: 48px;"">+</p>","iti","","","",""
"null","null","html-keyboard-response","23","58589","0.0-23.0","","<div class=""circle ready""></div>","ready","","","",""
"null","null","html-keyboard-response","24","59552","0.0-24.0","","","isi","","","",""
"null","null","html-keyboard-response","25","60054","0.0-25.0","","<div class=""circle set""></div>","set","500","","",""
"1063"," ","html-keyboard-response","26","61118","0.0-26.0","","","go","","960","1063","103"
"null","null","html-keyboard-response","27","61620","0.0-27.0","","<div class=""circle go""></div>","feedback_circle","","","",""
"null","null","html-keyboard-response","28","62124","0.0-28.0","","
      <div style=""text-align:center;"">
        
        <p><strong>Error:</strong> +103 ms</p>

        <div style=""position: relative; width: 80%; height: 40px; margin: 40px auto;"">
          <div style=""height: 8px; background: linear-gradient(to right, #3498db, #ccc, #e74c3c); border-radius: 4px;""></div>
          <div style=""position: absolute; left: 60.3%; top: -6px; transform: translateX(-50%);"">
            <div style=""width: 14px; height: 14px; background: black; border-radius: 50%; border: 2px solid white;""></div>
          </div>
          <div style=""position: absolute; left: 0%; top: 20px; font-size: 12px;"">–500 ms</div>
          <div style=""position: absolute; left: 50%; top: 20px; font-size: 12px; transform: translateX(-50%);"">0</div>
          <div style=""position: absolute; right: 0%; top: 20px; font-size: 12px;"">+500 ms</div>
        </div>

        <p>Press any key to continue.</p>
      </div>
    ","feedback_text","","","",""
"null","null","html-keyboard-response","29","63127","0.0-29.0","","<p style=""font-size: 48px;"">+</p>","iti","","","",""
"null","null","html-keyboard-response","30","63630","0.0-30.0","","<div class=""circle ready""></div>","ready","","","",""
"null","null","html-keyboard-response","31","64482","0.0-31.0","","","isi","","","",""
"null","null","html-keyboard-response","32","64985","0.0-32.0","","<div class=""circle set""></div>","set","500","","",""
"1044"," ","html-keyboard-response","33","66031","0.0-33.0","","","go","","850","1044","194"
"null","null","html-keyboard-response","34","66532","0.0-34.0","","<div class=""circle go""></div>","feedback_circle","","","",""
"null","null","html-keyboard-response","35","67035","0.0-35.0","","
      <div style=""text-align:center;"">
        
        <p><strong>Error:</strong> +194 ms</p>

        <div style=""position: relative; width: 80%; height: 40px; margin: 40px auto;"">
          <div style=""height: 8px; background: linear-gradient(to right, #3498db, #ccc, #e74c3c); border-radius: 4px;""></div>
          <div style=""position: absolute; left: 69.39999999999999%; top: -6px; transform: translateX(-50%);"">
            <div style=""width: 14px; height: 14px; background: black; border-radius: 50%; border: 2px solid white;""></div>
          </div>
          <div style=""position: absolute; left: 0%; top: 20px; font-size: 12px;"">–500 ms</div>
          <div style=""position: absolute; left: 50%; top: 20px; font-size: 12px; transform: translateX(-50%);"">0</div>
          <div style=""position: absolute; right: 0%; top: 20px; font-size: 12px;"">+500 ms</div>
        </div>

        <p>Press any key to continue.</p>
      </div>
    ","feedback_text","","","",""
"null","null","html-keyboard-response","36","68037","0.0-36.0","","<p style=""font-size: 48px;"">+</p>","iti","","","",""
"null","null","html-keyboard-response","37","68540","0.0-37.0","","<div class=""circle ready""></div>","ready","","","",""
"null","null","html-keyboard-response","38","69213","0.0-38.0","","","isi","","","",""
"null","null","html-keyboard-response","39","69716","0.0-39.0","","<div class=""circle set""></div>","set","500","","",""
"554"," ","html-keyboard-response","40","70271","0.0-40.0","","","go","","670","554","-116"
"null","null","html-keyboard-response","41","70773","0.0-41.0","","<div class=""circle go""></div>","feedback_circle","","","",""
"null","null","html-keyboard-response","42","71276","0.0-42.0","","
      <div style=""text-align:center;"">
        
        <p><strong>Error:</strong> -116 ms</p>

        <div style=""position: relative; width: 80%; height: 40px; margin: 40px auto;"">
          <div style=""height: 8px; background: linear-gradient(to right, #3498db, #ccc, #e74c3c); border-radius: 4px;""></div>
          <div style=""position: absolute; left: 38.4%; top: -6px; transform: translateX(-50%);"">
            <div style=""width: 14px; height: 14px; background: black; border-radius: 50%; border: 2px solid white;""></div>
          </div>
          <div style=""position: absolute; left: 0%; top: 20px; font-size: 12px;"">–500 ms</div>
          <div style=""position: absolute; left: 50%; top: 20px; font-size: 12px; transform: translateX(-50%);"">0</div>
          <div style=""position: absolute; right: 0%; top: 20px; font-size: 12px;"">+500 ms</div>
        </div>

        <p>Press any key to continue.</p>
      </div>
    ","feedback_text","","","",""
"null","null","html-keyboard-response","43","72279","0.0-43.0","","<p style=""font-size: 48px;"">+</p>","iti","","","",""
"null","null","html-keyboard-response","44","72781","0.0-44.0","","<div class=""circle ready""></div>","ready","","","",""
"null","null","html-keyboard-response","45","73805","0.0-45.0","","","isi","","","",""
"null","null","html-keyboard-response","46","74307","0.0-46.0","","<div class=""circle set""></div>","set","500","","",""
"1097"," ","html-keyboard-response","47","75406","0.0-47.0","","","go","","1020","1097","77"
"null","null","html-keyboard-response","48","75907","0.0-48.0","","<div class=""circle go""></div>","feedback_circle","","","",""
"null","null","html-keyboard-response","49","76411","0.0-49.0","","
      <div style=""text-align:center;"">
        
        <p><strong>Error:</strong> +77 ms</p>

        <div style=""position: relative; width: 80%; height: 40px; margin: 40px auto;"">
          <div style=""height: 8px; background: linear-gradient(to right, #3498db, #ccc, #e74c3c); border-radius: 4px;""></div>
          <div style=""position: absolute; left: 57.699999999999996%; top: -6px; transform: translateX(-50%);"">
            <div style=""width: 14px; height: 14px; background: black; border-radius: 50%; border: 2px solid white;""></div>
          </div>
          <div style=""position: absolute; left: 0%; top: 20px; font-size: 12px;"">–500 ms</div>
          <div style=""position: absolute; left: 50%; top: 20px; font-size: 12px; transform: translateX(-50%);"">0</div>
          <div style=""position: absolute; right: 0%; top: 20px; font-size: 12px;"">+500 ms</div>
        </div>

        <p>Press any key to continue.</p>
      </div>
    ","feedback_text","","","",""
"null","null","html-keyboard-response","50","77413","0.0-50.0","","<p style=""font-size: 48px;"">+</p>","iti","","","",""
"null","null","html-keyboard-response","51","77916","0.0-51.0","","<div class=""circle ready""></div>","ready","","","",""
"null","null","html-keyboard-response","52","78879","0.0-52.0","","","isi","","","",""
"null","null","html-keyboard-response","53","79382","0.0-53.0","","<div class=""circle set""></div>","set","500","","",""
"980"," ","html-keyboard-response","54","80364","0.0-54.0","","","go","","960","980","20"
"null","null","html-keyboard-response","55","80866","0.0-55.0","","<div class=""circle go""></div>","feedback_circle","","","",""
"null","null","html-keyboard-response","56","81369","0.0-56.0","","
      <div style=""text-align:center;"">
        
        <p><strong>Error:</strong> +20 ms</p>

        <div style=""position: relative; width: 80%; height: 40px; margin: 40px auto;"">
          <div style=""height: 8px; background: linear-gradient(to right, #3498db, #ccc, #e74c3c); border-radius: 4px;""></div>
          <div style=""position: absolute; left: 52%; top: -6px; transform: translateX(-50%);"">
            <div style=""width: 14px; height: 14px; background: black; border-radius: 50%; border: 2px solid white;""></div>
          </div>
          <div style=""position: absolute; left: 0%; top: 20px; font-size: 12px;"">–500 ms</div>
          <div style=""position: absolute; left: 50%; top: 20px; font-size: 12px; transform: translateX(-50%);"">0</div>
          <div style=""position: absolute; right: 0%; top: 20px; font-size: 12px;"">+500 ms</div>
        </div>

        <p>Press any key to continue.</p>
      </div>
    ","feedback_text","","","",""
"null","null","html-keyboard-response","57","82372","0.0-57.0","","<p style=""font-size: 48px;"">+</p>","iti","","","",""
"null","null","html-keyboard-response","58","82876","0.0-58.0","","<div class=""circle ready""></div>","ready","","","",""
"null","null","html-keyboard-response","59","83669","0.0-59.0","","","isi","","","",""
"null","null","html-keyboard-response","60","84171","0.0-60.0","","<div class=""circle set""></div>","set","500","","",""
"758"," ","html-keyboard-response","61","84931","0.0-61.0","","","go","","790","758","-32"
"null","null","html-keyboard-response","62","85432","0.0-62.0","","<div class=""circle go""></div>","feedback_circle","","","",""
"null","null","html-keyboard-response","63","85935","0.0-63.0","","
      <div style=""text-align:center;"">
        
        <p><strong>Error:</strong> -32 ms</p>

        <div style=""position: relative; width: 80%; height: 40px; margin: 40px auto;"">
          <div style=""height: 8px; background: linear-gradient(to right, #3498db, #ccc, #e74c3c); border-radius: 4px;""></div>
          <div style=""position: absolute; left: 46.800000000000004%; top: -6px; transform: translateX(-50%);"">
            <div style=""width: 14px; height: 14px; background: black; border-radius: 50%; border: 2px solid white;""></div>
          </div>
          <div style=""position: absolute; left: 0%; top: 20px; font-size: 12px;"">–500 ms</div>
          <div style=""position: absolute; left: 50%; top: 20px; font-size: 12px; transform: translateX(-50%);"">0</div>
          <div style=""position: absolute; right: 0%; top: 20px; font-size: 12px;"">+500 ms</div>
        </div>

        <p>Press any key to continue.</p>
      </div>
    ","feedback_text","","","",""
"null","null","html-keyboard-response","64","86938","0.0-64.0","","<p style=""font-size: 48px;"">+</p>","iti","","","",""
"null","null","html-keyboard-response","65","87441","0.0-65.0","","<div class=""circle ready""></div>","ready","","","",""
"null","null","html-keyboard-response","66","88234","0.0-66.0","","","isi","","","",""
"null","null","html-keyboard-response","67","88737","0.0-67.0","","<div class=""circle set""></div>","set","500","","",""
"914"," ","html-keyboard-response","68","89653","0.0-68.0","","","go","","790","914","124"
"null","null","html-keyboard-response","69","90154","0.0-69.0","","<div class=""circle go""></div>","feedback_circle","","","",""
"null","null","html-keyboard-response","70","90657","0.0-70.0","","
      <div style=""text-align:center;"">
        
        <p><strong>Error:</strong> +124 ms</p>

        <div style=""position: relative; width: 80%; height: 40px; margin: 40px auto;"">
          <div style=""height: 8px; background: linear-gradient(to right, #3498db, #ccc, #e74c3c); border-radius: 4px;""></div>
          <div style=""position: absolute; left: 62.4%; top: -6px; transform: translateX(-50%);"">
            <div style=""width: 14px; height: 14px; background: black; border-radius: 50%; border: 2px solid white;""></div>
          </div>
          <div style=""position: absolute; left: 0%; top: 20px; font-size: 12px;"">–500 ms</div>
          <div style=""position: absolute; left: 50%; top: 20px; font-size: 12px; transform: translateX(-50%);"">0</div>
          <div style=""position: absolute; right: 0%; top: 20px; font-size: 12px;"">+500 ms</div>
        </div>

        <p>Press any key to continue.</p>
      </div>
    ","feedback_text","","","",""
"null","null","html-keyboard-response","71","91660","0.0-71.0","","<p style=""font-size: 48px;"">+</p>","iti","","","",""
"null","null","html-keyboard-response","72","92163","0.0-72.0","","<div class=""circle ready""></div>","ready","","","",""
"null","null","html-keyboard-response","73","93076","0.0-73.0","","","isi","","","",""
"null","null","html-keyboard-response","74","93579","0.0-74.0","","<div class=""circle set""></div>","set","500","","",""
"716"," ","html-keyboard-response","75","94296","0.0-75.0","","","go","","910","716","-194"
"null","null","html-keyboard-response","76","94799","0.0-76.0","","<div class=""circle go""></div>","feedback_circle","","","",""
"null","null","html-keyboard-response","77","95301","0.0-77.0","","
      <div style=""text-align:center;"">
        
        <p><strong>Error:</strong> -194 ms</p>

        <div style=""position: relative; width: 80%; height: 40px; margin: 40px auto;"">
          <div style=""height: 8px; background: linear-gradient(to right, #3498db, #ccc, #e74c3c); border-radius: 4px;""></div>
          <div style=""position: absolute; left: 30.599999999999998%; top: -6px; transform: translateX(-50%);"">
            <div style=""width: 14px; height: 14px; background: black; border-radius: 50%; border: 2px solid white;""></div>
          </div>
          <div style=""position: absolute; left: 0%; top: 20px; font-size: 12px;"">–500 ms</div>
          <div style=""position: absolute; left: 50%; top: 20px; font-size: 12px; transform: translateX(-50%);"">0</div>
          <div style=""position: absolute; right: 0%; top: 20px; font-size: 12px;"">+500 ms</div>
        </div>

        <p>Press any key to continue.</p>
      </div>
    ","feedback_text","","","",""
"null","null","html-keyboard-response","78","96304","0.0-78.0","","<p style=""font-size: 48px;"">+</p>","iti","","","",""
"null","null","html-keyboard-response","79","96808","0.0-79.0","","<div class=""circle ready""></div>","ready","","","",""
"null","null","html-keyboard-response","80","97600","0.0-80.0","","","isi","","","",""
"null","null","html-keyboard-response","81","98103","0.0-81.0","","<div class=""circle set""></div>","set","500","","",""
"629"," ","html-keyboard-response","82","98733","0.0-82.0","","","go","","790","629","-161"
"null","null","html-keyboard-response","83","99235","0.0-83.0","","<div class=""circle go""></div>","feedback_circle","","","",""
"null","null","html-keyboard-response","84","99739","0.0-84.0","","
      <div style=""text-align:center;"">
        
        <p><strong>Error:</strong> -161 ms</p>

        <div style=""position: relative; width: 80%; height: 40px; margin: 40px auto;"">
          <div style=""height: 8px; background: linear-gradient(to right, #3498db, #ccc, #e74c3c); border-radius: 4px;""></div>
          <div style=""position: absolute; left: 33.900000000000006%; top: -6px; transform: translateX(-50%);"">
            <div style=""width: 14px; height: 14px; background: black; border-radius: 50%; border: 2px solid white;""></div>
          </div>
          <div style=""position: absolute; left: 0%; top: 20px; font-size: 12px;"">–500 ms</div>
          <div style=""position: absolute; left: 50%; top: 20px; font-size: 12px; transform: translateX(-50%);"">0</div>
          <div style=""position: absolute; right: 0%; top: 20px; font-size: 12px;"">+500 ms</div>
        </div>

        <p>Press any key to continue.</p>
      </div>
    ","feedback_text","","","",""
"null","null","html-keyboard-response","85","100741","0.0-85.0","","<p style=""font-size: 48px;"">+</p>","iti","","","",""
"null","null","html-keyboard-response","86","101244","0.0-86.0","","<div class=""circle ready""></div>","ready","","","",""
"null","null","html-keyboard-response","87","101977","0.0-87.0","","","isi","","","",""
"null","null","html-keyboard-response","88","102480","0.0-88.0","","<div class=""circle set""></div>","set","500","","",""
"1143"," ","html-keyboard-response","89","103625","0.0-89.0","","","go","","730","1143","413"
"null","null","html-keyboard-response","90","104127","0.0-90.0","","<div class=""circle go""></div>","feedback_circle","","","",""
"null","null","html-keyboard-response","91","104630","0.0-91.0","","
      <div style=""text-align:center;"">
        
        <p><strong>Error:</strong> +413 ms</p>

        <div style=""position: relative; width: 80%; height: 40px; margin: 40px auto;"">
          <div style=""height: 8px; background: linear-gradient(to right, #3498db, #ccc, #e74c3c); border-radius: 4px;""></div>
          <div style=""position: absolute; left: 91.3%; top: -6px; transform: translateX(-50%);"">
            <div style=""width: 14px; height: 14px; background: black; border-radius: 50%; border: 2px solid white;""></div>
          </div>
          <div style=""position: absolute; left: 0%; top: 20px; font-size: 12px;"">–500 ms</div>
          <div style=""position: absolute; left: 50%; top: 20px; font-size: 12px; transform: translateX(-50%);"">0</div>
          <div style=""position: absolute; right: 0%; top: 20px; font-size: 12px;"">+500 ms</div>
        </div>

        <p>Press any key to continue.</p>
      </div>
    ","feedback_text","","","",""
"null","null","html-keyboard-response","92","105633","0.0-92.0","","<p style=""font-size: 48px;"">+</p>","iti","","","",""
"null","null","html-keyboard-response","93","106136","0.0-93.0","","<div class=""circle ready""></div>","ready","","","",""
"null","null","html-keyboard-response","94","107159","0.0-94.0","","","isi","","","",""
"null","null","html-keyboard-response","95","107662","0.0-95.0","","<div class=""circle set""></div>","set","500","","",""
"830"," ","html-keyboard-response","96","108494","0.0-96.0","","","go","","1020","830","-190"
"null","null","html-keyboard-response","97","108995","0.0-97.0","","<div class=""circle go""></div>","feedback_circle","","","",""
"null","null","html-keyboard-response","98","109499","0.0-98.0","","
      <div style=""text-align:center;"">
        
        <p><strong>Error:</strong> -190 ms</p>

        <div style=""position: relative; width: 80%; height: 40px; margin: 40px auto;"">
          <div style=""height: 8px; background: linear-gradient(to right, #3498db, #ccc, #e74c3c); border-radius: 4px;""></div>
          <div style=""position: absolute; left: 31%; top: -6px; transform: translateX(-50%);"">
            <div style=""width: 14px; height: 14px; background: black; border-radius: 50%; border: 2px solid white;""></div>
          </div>
          <div style=""position: absolute; left: 0%; top: 20px; font-size: 12px;"">–500 ms</div>
          <div style=""position: absolute; left: 50%; top: 20px; font-size: 12px; transform: translateX(-50%);"">0</div>
          <div style=""position: absolute; right: 0%; top: 20px; font-size: 12px;"">+500 ms</div>
        </div>

        <p>Press any key to continue.</p>
      </div>
    ","feedback_text","","","",""
"null","null","html-keyboard-response","99","110501","0.0-99.0","","<p style=""font-size: 48px;"">+</p>","iti","","","",""
"null","null","html-keyboard-response","100","111004","0.0-100.0","","<div class=""circle ready""></div>","ready","","","",""
"null","null","html-keyboard-response","101","111917","0.0-101.0","","","isi","","","",""
"null","null","html-keyboard-response","102","112420","0.0-102.0","","<div class=""circle set""></div>","set","500","","",""
"982"," ","html-keyboard-response","103","113404","0.0-103.0","","","go","","910","982","72"
"null","null","html-keyboard-response","104","113906","0.0-104.0","","<div class=""circle go""></div>","feedback_circle","","","",""
"null","null","html-keyboard-response","105","114410","0.0-105.0","","
      <div style=""text-align:center;"">
        
        <p><strong>Error:</strong> +72 ms</p>

        <div style=""position: relative; width: 80%; height: 40px; margin: 40px auto;"">
          <div style=""height: 8px; background: linear-gradient(to right, #3498db, #ccc, #e74c3c); border-radius: 4px;""></div>
          <div style=""position: absolute; left: 57.199999999999996%; top: -6px; transform: translateX(-50%);"">
            <div style=""width: 14px; height: 14px; background: black; border-radius: 50%; border: 2px solid white;""></div>
          </div>
          <div style=""position: absolute; left: 0%; top: 20px; font-size: 12px;"">–500 ms</div>
          <div style=""position: absolute; left: 50%; top: 20px; font-size: 12px; transform: translateX(-50%);"">0</div>
          <div style=""position: absolute; right: 0%; top: 20px; font-size: 12px;"">+500 ms</div>
        </div>

        <p>Press any key to continue.</p>
      </div>
    ","feedback_text","","","",""
"null","null","html-keyboard-response","106","115412","0.0-106.0","","<p style=""font-size: 48px;"">+</p>","iti","","","",""
"null","null","html-keyboard-response","107","115915","0.0-107.0","","<div class=""circle ready""></div>","ready","","","",""
"null","null","html-keyboard-response","108","116828","0.0-108.0","","","isi","","","",""
"null","null","html-keyboard-response","109","117331","0.0-109.0","","<div class=""circle set""></div>","set","500","","",""
"894"," ","html-keyboard-response","110","118227","0.0-110.0","","","go","","910","894","-16"
"null","null","html-keyboard-response","111","118729","0.0-111.0","","<div class=""circle go""></div>","feedback_circle","","","",""
"null","null","html-keyboard-response","112","119232","0.0-112.0","","
      <div style=""text-align:center;"">
        
        <p><strong>Error:</strong> -16 ms</p>

        <div style=""position: relative; width: 80%; height: 40px; margin: 40px auto;"">
          <div style=""height: 8px; background: linear-gradient(to right, #3498db, #ccc, #e74c3c); border-radius: 4px;""></div>
          <div style=""position: absolute; left: 48.4%; top: -6px; transform: translateX(-50%);"">
            <div style=""width: 14px; height: 14px; background: black; border-radius: 50%; border: 2px solid white;""></div>
          </div>
          <div style=""position: absolute; left: 0%; top: 20px; font-size: 12px;"">–500 ms</div>
          <div style=""position: absolute; left: 50%; top: 20px; font-size: 12px; transform: translateX(-50%);"">0</div>
          <div style=""position: absolute; right: 0%; top: 20px; font-size: 12px;"">+500 ms</div>
        </div>

        <p>Press any key to continue.</p>
      </div>
    ","feedback_text","","","",""
"null","null","html-keyboard-response","113","120234","0.0-113.0","","<p style=""font-size: 48px;"">+</p>","iti","","","",""
"null","null","html-keyboard-response","114","120737","0.0-114.0","","<div class=""circle ready""></div>","ready","","","",""
"null","null","html-keyboard-response","115","121759","0.0-115.0","","","isi","","","",""
"null","null","html-keyboard-response","116","122261","0.0-116.0","","<div class=""circle set""></div>","set","500","","",""
"858"," ","html-keyboard-response","117","123121","0.0-117.0","","","go","","1020","858","-162"
"null","null","html-keyboard-response","118","123623","0.0-118.0","","<div class=""circle go""></div>","feedback_circle","","","",""
"null","null","html-keyboard-response","119","124126","0.0-119.0","","
      <div style=""text-align:center;"">
        
        <p><strong>Error:</strong> -162 ms</p>

        <div style=""position: relative; width: 80%; height: 40px; margin: 40px auto;"">
          <div style=""height: 8px; background: linear-gradient(to right, #3498db, #ccc, #e74c3c); border-radius: 4px;""></div>
          <div style=""position: absolute; left: 33.800000000000004%; top: -6px; transform: translateX(-50%);"">
            <div style=""width: 14px; height: 14px; background: black; border-radius: 50%; border: 2px solid white;""></div>
          </div>
          <div style=""position: absolute; left: 0%; top: 20px; font-size: 12px;"">–500 ms</div>
          <div style=""position: absolute; left: 50%; top: 20px; font-size: 12px; transform: translateX(-50%);"">0</div>
          <div style=""position: absolute; right: 0%; top: 20px; font-size: 12px;"">+500 ms</div>
        </div>

        <p>Press any key to continue.</p>
      </div>
    ","feedback_text","","","",""
"null","null","html-keyboard-response","120","125129","0.0-120.0","","<p style=""font-size: 48px;"">+</p>","iti","","","",""
"null","null","html-keyboard-response","121","125633","0.0-121.0","","<div class=""circle ready""></div>","ready","","","",""
"null","null","html-keyboard-response","122","126305","0.0-122.0","","","isi","","","",""
"null","null","html-keyboard-response","123","126808","0.0-123.0","","<div class=""circle set""></div>","set","500","","",""
"710"," ","html-keyboard-response","124","127519","0.0-124.0","","","go","","670","710","40"
"null","null","html-keyboard-response","125","128021","0.0-125.0","","<div class=""circle go""></div>","feedback_circle","","","",""
"null","null","html-keyboard-response","126","128524","0.0-126.0","","
      <div style=""text-align:center;"">
        
        <p><strong>Error:</strong> +40 ms</p>

        <div style=""position: relative; width: 80%; height: 40px; margin: 40px auto;"">
          <div style=""height: 8px; background: linear-gradient(to right, #3498db, #ccc, #e74c3c); border-radius: 4px;""></div>
          <div style=""position: absolute; left: 54%; top: -6px; transform: translateX(-50%);"">
            <div style=""width: 14px; height: 14px; background: black; border-radius: 50%; border: 2px solid white;""></div>
          </div>
          <div style=""position: absolute; left: 0%; top: 20px; font-size: 12px;"">–500 ms</div>
          <div style=""position: absolute; left: 50%; top: 20px; font-size: 12px; transform: translateX(-50%);"">0</div>
          <div style=""position: absolute; right: 0%; top: 20px; font-size: 12px;"">+500 ms</div>
        </div>

        <p>Press any key to continue.</p>
      </div>
    ","feedback_text","","","",""
"null","null","html-keyboard-response","127","129527","0.0-127.0","","<p style=""font-size: 48px;"">+</p>","iti","","","",""
"null","null","html-keyboard-response","128","130030","0.0-128.0","","<div class=""circle ready""></div>","ready","","","",""
"null","null","html-keyboard-response","129","130942","0.0-129.0","","","isi","","","",""
"null","null","html-keyboard-response","130","131445","0.0-130.0","","<div class=""circle set""></div>","set","500","","",""
"929"," ","html-keyboard-response","131","132376","0.0-131.0","","","go","","910","929","19"
"null","null","html-keyboard-response","132","132878","0.0-132.0","","<div class=""circle go""></div>","feedback_circle","","","",""
"null","null","html-keyboard-response","133","133381","0.0-133.0","","
      <div style=""text-align:center;"">
        
        <p><strong>Error:</strong> +19 ms</p>

        <div style=""position: relative; width: 80%; height: 40px; margin: 40px auto;"">
          <div style=""height: 8px; background: linear-gradient(to right, #3498db, #ccc, #e74c3c); border-radius: 4px;""></div>
          <div style=""position: absolute; left: 51.9%; top: -6px; transform: translateX(-50%);"">
            <div style=""width: 14px; height: 14px; background: black; border-radius: 50%; border: 2px solid white;""></div>
          </div>
          <div style=""position: absolute; left: 0%; top: 20px; font-size: 12px;"">–500 ms</div>
          <div style=""position: absolute; left: 50%; top: 20px; font-size: 12px; transform: translateX(-50%);"">0</div>
          <div style=""position: absolute; right: 0%; top: 20px; font-size: 12px;"">+500 ms</div>
        </div>

        <p>Press any key to continue.</p>
      </div>
    ","feedback_text","","","",""
"null","null","html-keyboard-response","134","134383","0.0-134.0","","<p style=""font-size: 48px;"">+</p>","iti","","","",""
"null","null","html-keyboard-response","135","134886","0.0-135.0","","<div class=""circle ready""></div>","ready","","","",""
"null","null","html-keyboard-response","136","135619","0.0-136.0","","","isi","","","",""
"null","null","html-keyboard-response","137","136121","0.0-137.0","","<div class=""circle set""></div>","set","500","","",""
"753"," ","html-keyboard-response","138","136876","0.0-138.0","","","go","","730","753","23"
"null","null","html-keyboard-response","139","137377","0.0-139.0","","<div class=""circle go""></div>","feedback_circle","","","",""
"null","null","html-keyboard-response","140","137880","0.0-140.0","","
      <div style=""text-align:center;"">
        
        <p><strong>Error:</strong> +23 ms</p>

        <div style=""position: relative; width: 80%; height: 40px; margin: 40px auto;"">
          <div style=""height: 8px; background: linear-gradient(to right, #3498db, #ccc, #e74c3c); border-radius: 4px;""></div>
          <div style=""position: absolute; left: 52.300000000000004%; top: -6px; transform: translateX(-50%);"">
            <div style=""width: 14px; height: 14px; background: black; border-radius: 50%; border: 2px solid white;""></div>
          </div>
          <div style=""position: absolute; left: 0%; top: 20px; font-size: 12px;"">–500 ms</div>
          <div style=""position: absolute; left: 50%; top: 20px; font-size: 12px; transform: translateX(-50%);"">0</div>
          <div style=""position: absolute; right: 0%; top: 20px; font-size: 12px;"">+500 ms</div>
        </div>

        <p>Press any key to continue.</p>
      </div>
    ","feedback_text","","","",""
"null","null","html-keyboard-response","141","138883","0.0-141.0","","<p style=""font-size: 48px;"">+</p>","iti","","","",""
"null","null","html-keyboard-response","142","139386","0.0-142.0","","<div class=""circle ready""></div>","ready","","","",""
"null","null","html-keyboard-response","143","140409","0.0-143.0","","","isi","","","",""
"null","null","html-keyboard-response","144","140912","0.0-144.0","","<div class=""circle set""></div>","set","500","","",""
"962"," ","html-keyboard-response","145","141875","0.0-145.0","","","go","","1020","962","-58"
"null","null","html-keyboard-response","146","142376","0.0-146.0","","<div class=""circle go""></div>","feedback_circle","","","",""
"null","null","html-keyboard-response","147","142880","0.0-147.0","","
      <div style=""text-align:center;"">
        
        <p><strong>Error:</strong> -58 ms</p>

        <div style=""position: relative; width: 80%; height: 40px; margin: 40px auto;"">
          <div style=""height: 8px; background: linear-gradient(to right, #3498db, #ccc, #e74c3c); border-radius: 4px;""></div>
          <div style=""position: absolute; left: 44.2%; top: -6px; transform: translateX(-50%);"">
            <div style=""width: 14px; height: 14px; background: black; border-radius: 50%; border: 2px solid white;""></div>
          </div>
          <div style=""position: absolute; left: 0%; top: 20px; font-size: 12px;"">–500 ms</div>
          <div style=""position: absolute; left: 50%; top: 20px; font-size: 12px; transform: translateX(-50%);"">0</div>
          <div style=""position: absolute; right: 0%; top: 20px; font-size: 12px;"">+500 ms</div>
        </div>

        <p>Press any key to continue.</p>
      </div>
    ","feedback_text","","","",""
"null","null","html-keyboard-response","148","143883","0.0-148.0","","<p style=""font-size: 48px;"">+</p>","iti","","","",""
"null","null","html-keyboard-response","149","144386","0.0-149.0","","<div class=""circle ready""></div>","ready","","","",""
"null","null","html-keyboard-response","150","145239","0.0-150.0","","","isi","","","",""
"null","null","html-keyboard-response","151","145742","0.0-151.0","","<div class=""circle set""></div>","set","500","","",""
"905"," ","html-keyboard-response","152","146648","0.0-152.0","","","go","","850","905","55"
"null","null","html-keyboard-response","153","147150","0.0-153.0","","<div class=""circle go""></div>","feedback_circle","","","",""
"null","null","html-keyboard-response","154","147652","0.0-154.0","","
      <div style=""text-align:center;"">
        
        <p><strong>Error:</strong> +55 ms</p>

        <div style=""position: relative; width: 80%; height: 40px; margin: 40px auto;"">
          <div style=""height: 8px; background: linear-gradient(to right, #3498db, #ccc, #e74c3c); border-radius: 4px;""></div>
          <div style=""position: absolute; left: 55.50000000000001%; top: -6px; transform: translateX(-50%);"">
            <div style=""width: 14px; height: 14px; background: black; border-radius: 50%; border: 2px solid white;""></div>
          </div>
          <div style=""position: absolute; left: 0%; top: 20px; font-size: 12px;"">–500 ms</div>
          <div style=""position: absolute; left: 50%; top: 20px; font-size: 12px; transform: translateX(-50%);"">0</div>
          <div style=""position: absolute; right: 0%; top: 20px; font-size: 12px;"">+500 ms</div>
        </div>

        <p>Press any key to continue.</p>
      </div>
    ","feedback_text","","","",""
"null","null","html-keyboard-response","155","148654","0.0-155.0","","<p style=""font-size: 48px;"">+</p>","iti","","","",""
"null","null","html-keyboard-response","156","149157","0.0-156.0","","<div class=""circle ready""></div>","ready","","","",""
"null","null","html-keyboard-response","157","150180","0.0-157.0","","","isi","","","",""
"null","null","html-keyboard-response","158","150683","0.0-158.0","","<div class=""circle set""></div>","set","500","","",""
"998"," ","html-keyboard-response","159","151682","0.0-159.0","","","go","","1020","998","-22"
"null","null","html-keyboard-response","160","152184","0.0-160.0","","<div class=""circle go""></div>","feedback_circle","","","",""
"null","null","html-keyboard-response","161","152687","0.0-161.0","","
      <div style=""text-align:center;"">
        
        <p><strong>Error:</strong> -22 ms</p>

        <div style=""position: relative; width: 80%; height: 40px; margin: 40px auto;"">
          <div style=""height: 8px; background: linear-gradient(to right, #3498db, #ccc, #e74c3c); border-radius: 4px;""></div>
          <div style=""position: absolute; left: 47.8%; top: -6px; transform: translateX(-50%);"">
            <div style=""width: 14px; height: 14px; background: black; border-radius: 50%; border: 2px solid white;""></div>
          </div>
          <div style=""position: absolute; left: 0%; top: 20px; font-size: 12px;"">–500 ms</div>
          <div style=""position: absolute; left: 50%; top: 20px; font-size: 12px; transform: translateX(-50%);"">0</div>
          <div style=""position: absolute; right: 0%; top: 20px; font-size: 12px;"">+500 ms</div>
        </div>

        <p>Press any key to continue.</p>
      </div>
    ","feedback_text","","","",""
"null","null","html-keyboard-response","162","153688","0.0-162.0","","<p style=""font-size: 48px;"">+</p>","iti","","","",""
"null","null","html-keyboard-response","163","154191","0.0-163.0","","<div class=""circle ready""></div>","ready","","","",""
"null","null","html-keyboard-response","164","155044","0.0-164.0","","","isi","","","",""
"null","null","html-keyboard-response","165","155546","0.0-165.0","","<div class=""circle set""></div>","set","500","","",""
"853"," ","html-keyboard-response","166","156401","0.0-166.0","","","go","","850","853","3"
"null","null","html-keyboard-response","167","156902","0.0-167.0","","<div class=""circle go""></div>","feedback_circle","","","",""
"null","null","html-keyboard-response","168","157406","0.0-168.0","","
      <div style=""text-align:center;"">
        
        <p><strong>Error:</strong> +3 ms</p>

        <div style=""position: relative; width: 80%; height: 40px; margin: 40px auto;"">
          <div style=""height: 8px; background: linear-gradient(to right, #3498db, #ccc, #e74c3c); border-radius: 4px;""></div>
          <div style=""position: absolute; left: 50.3%; top: -6px; transform: translateX(-50%);"">
            <div style=""width: 14px; height: 14px; background: black; border-radius: 50%; border: 2px solid white;""></div>
          </div>
          <div style=""position: absolute; left: 0%; top: 20px; font-size: 12px;"">–500 ms</div>
          <div style=""position: absolute; left: 50%; top: 20px; font-size: 12px; transform: translateX(-50%);"">0</div>
          <div style=""position: absolute; right: 0%; top: 20px; font-size: 12px;"">+500 ms</div>
        </div>

        <p>Press any key to continue.</p>
      </div>
    ","feedback_text","","","",""
"null","null","html-keyboard-response","169","158409","0.0-169.0","","<p style=""font-size: 48px;"">+</p>","iti","","","",""
"null","null","html-keyboard-response","170","158912","0.0-170.0","","<div class=""circle ready""></div>","ready","","","",""
"null","null","html-keyboard-response","171","159824","0.0-171.0","","","isi","","","",""
"null","null","html-keyboard-response","172","160327","0.0-172.0","","<div class=""circle set""></div>","set","500","","",""
"796"," ","html-keyboard-response","173","161124","0.0-173.0","","","go","","910","796","-114"
"null","null","html-keyboard-response","174","161626","0.0-174.0","","<div class=""circle go""></div>","feedback_circle","","","",""
"null","null","html-keyboard-response","175","162129","0.0-175.0","","
      <div style=""text-align:center;"">
        
        <p><strong>Error:</strong> -114 ms</p>

        <div style=""position: relative; width: 80%; height: 40px; margin: 40px auto;"">
          <div style=""height: 8px; background: linear-gradient(to right, #3498db, #ccc, #e74c3c); border-radius: 4px;""></div>
          <div style=""position: absolute; left: 38.6%; top: -6px; transform: translateX(-50%);"">
            <div style=""width: 14px; height: 14px; background: black; border-radius: 50%; border: 2px solid white;""></div>
          </div>
          <div style=""position: absolute; left: 0%; top: 20px; font-size: 12px;"">–500 ms</div>
          <div style=""position: absolute; left: 50%; top: 20px; font-size: 12px; transform: translateX(-50%);"">0</div>
          <div style=""position: absolute; right: 0%; top: 20px; font-size: 12px;"">+500 ms</div>
        </div>

        <p>Press any key to continue.</p>
      </div>
    ","feedback_text","","","",""
"null","null","html-keyboard-response","176","163132","0.0-176.0","","<p style=""font-size: 48px;"">+</p>","iti","","","",""
"null","null","html-keyboard-response","177","163635","0.0-177.0","","<div class=""circle ready""></div>","ready","","","",""
"null","null","html-keyboard-response","178","164548","0.0-178.0","","","isi","","","",""
"null","null","html-keyboard-response","179","165051","0.0-179.0","","<div class=""circle set""></div>","set","500","","",""
"1006"," ","html-keyboard-response","180","166058","0.0-180.0","","","go","","910","1006","96"
"null","null","html-keyboard-response","181","166560","0.0-181.0","","<div class=""circle go""></div>","feedback_circle","","","",""
"null","null","html-keyboard-response","182","167063","0.0-182.0","","
      <div style=""text-align:center;"">
        
        <p><strong>Error:</strong> +96 ms</p>

        <div style=""position: relative; width: 80%; height: 40px; margin: 40px auto;"">
          <div style=""height: 8px; background: linear-gradient(to right, #3498db, #ccc, #e74c3c); border-radius: 4px;""></div>
          <div style=""position: absolute; left: 59.599999999999994%; top: -6px; transform: translateX(-50%);"">
            <div style=""width: 14px; height: 14px; background: black; border-radius: 50%; border: 2px solid white;""></div>
          </div>
          <div style=""position: absolute; left: 0%; top: 20px; font-size: 12px;"">–500 ms</div>
          <div style=""position: absolute; left: 50%; top: 20px; font-size: 12px; transform: translateX(-50%);"">0</div>
          <div style=""position: absolute; right: 0%; top: 20px; font-size: 12px;"">+500 ms</div>
        </div>

        <p>Press any key to continue.</p>
      </div>
    ","feedback_text","","","",""
"null","null","html-keyboard-response","183","168065","0.0-183.0","","<p style=""font-size: 48px;"">+</p>","iti","","","",""
"null","null","html-keyboard-response","184","168568","0.0-184.0","","<div class=""circle ready""></div>","ready","","","",""
"null","null","html-keyboard-response","185","169241","0.0-185.0","","","isi","","","",""
"null","null","html-keyboard-response","186","169743","0.0-186.0","","<div class=""circle set""></div>","set","500","","",""
"695"," ","html-keyboard-response","187","170440","0.0-187.0","","","go","","670","695","25"
"null","null","html-keyboard-response","188","170941","0.0-188.0","","<div class=""circle go""></div>","feedback_circle","","","",""
"null","null","html-keyboard-response","189","171445","0.0-189.0","","
      <div style=""text-align:center;"">
        
        <p><strong>Error:</strong> +25 ms</p>

        <div style=""position: relative; width: 80%; height: 40px; margin: 40px auto;"">
          <div style=""height: 8px; background: linear-gradient(to right, #3498db, #ccc, #e74c3c); border-radius: 4px;""></div>
          <div style=""position: absolute; left: 52.5%; top: -6px; transform: translateX(-50%);"">
            <div style=""width: 14px; height: 14px; background: black; border-radius: 50%; border: 2px solid white;""></div>
          </div>
          <div style=""position: absolute; left: 0%; top: 20px; font-size: 12px;"">–500 ms</div>
          <div style=""position: absolute; left: 50%; top: 20px; font-size: 12px; transform: translateX(-50%);"">0</div>
          <div style=""position: absolute; right: 0%; top: 20px; font-size: 12px;"">+500 ms</div>
        </div>

        <p>Press any key to continue.</p>
      </div>
    ","feedback_text","","","",""
"null","null","html-keyboard-response","190","172447","0.0-190.0","","<p style=""font-size: 48px;"">+</p>","iti","","","",""
"null","null","html-keyboard-response","191","172949","0.0-191.0","","<div class=""circle ready""></div>","ready","","","",""
"null","null","html-keyboard-response","192","173861","0.0-192.0","","","isi","","","",""
"null","null","html-keyboard-response","193","174363","0.0-193.0","","<div class=""circle set""></div>","set","500","","",""
"887"," ","html-keyboard-response","194","175252","0.0-194.0","","","go","","910","887","-23"
"null","null","html-keyboard-response","195","175753","0.0-195.0","","<div class=""circle go""></div>","feedback_circle","","","",""
"null","null","html-keyboard-response","196","176256","0.0-196.0","","
      <div style=""text-align:center;"">
        
        <p><strong>Error:</strong> -23 ms</p>

        <div style=""position: relative; width: 80%; height: 40px; margin: 40px auto;"">
          <div style=""height: 8px; background: linear-gradient(to right, #3498db, #ccc, #e74c3c); border-radius: 4px;""></div>
          <div style=""position: absolute; left: 47.699999999999996%; top: -6px; transform: translateX(-50%);"">
            <div style=""width: 14px; height: 14px; background: black; border-radius: 50%; border: 2px solid white;""></div>
          </div>
          <div style=""position: absolute; left: 0%; top: 20px; font-size: 12px;"">–500 ms</div>
          <div style=""position: absolute; left: 50%; top: 20px; font-size: 12px; transform: translateX(-50%);"">0</div>
          <div style=""position: absolute; right: 0%; top: 20px; font-size: 12px;"">+500 ms</div>
        </div>

        <p>Press any key to continue.</p>
      </div>
    ","feedback_text","","","",""
"null","null","html-keyboard-response","197","177258","0.0-197.0","","<p style=""font-size: 48px;"">+</p>","iti","","","",""
"null","null","html-keyboard-response","198","177761","0.0-198.0","","<div class=""circle ready""></div>","ready","","","",""
"null","null","html-keyboard-response","199","178433","0.0-199.0","","","isi","","","",""
"null","null","html-keyboard-response","200","178936","0.0-200.0","","<div class=""circle set""></div>","set","500","","",""
"736"," ","html-keyboard-response","201","179673","0.0-201.0","","","go","","670","736","66"
"null","null","html-keyboard-response","202","180174","0.0-202.0","","<div class=""circle go""></div>","feedback_circle","","","",""
"null","null","html-keyboard-response","203","180677","0.0-203.0","","
      <div style=""text-align:center;"">
        
        <p><strong>Error:</strong> +66 ms</p>

        <div style=""position: relative; width: 80%; height: 40px; margin: 40px auto;"">
          <div style=""height: 8px; background: linear-gradient(to right, #3498db, #ccc, #e74c3c); border-radius: 4px;""></div>
          <div style=""position: absolute; left: 56.599999999999994%; top: -6px; transform: translateX(-50%);"">
            <div style=""width: 14px; height: 14px; background: black; border-radius: 50%; border: 2px solid white;""></div>
          </div>
          <div style=""position: absolute; left: 0%; top: 20px; font-size: 12px;"">–500 ms</div>
          <div style=""position: absolute; left: 50%; top: 20px; font-size: 12px; transform: translateX(-50%);"">0</div>
          <div style=""position: absolute; right: 0%; top: 20px; font-size: 12px;"">+500 ms</div>
        </div>

        <p>Press any key to continue.</p>
      </div>
    ","feedback_text","","","",""
"null","null","html-keyboard-response","204","181680","0.0-204.0","","<p style=""font-size: 48px;"">+</p>","iti","","","",""
"null","null","html-keyboard-response","205","182183","0.0-205.0","","<div class=""circle ready""></div>","ready","","","",""
"null","null","html-keyboard-response","206","183036","0.0-206.0","","","isi","","","",""
"null","null","html-keyboard-response","207","183538","0.0-207.0","","<div class=""circle set""></div>","set","500","","",""
"871"," ","html-keyboard-response","208","184411","0.0-208.0","","","go","","850","871","21"
"null","null","html-keyboard-response","209","184913","0.0-209.0","","<div class=""circle go""></div>","feedback_circle","","","",""
"null","null","html-keyboard-response","210","185415","0.0-210.0","","
      <div style=""text-align:center;"">
        
        <p><strong>Error:</strong> +21 ms</p>

        <div style=""position: relative; width: 80%; height: 40px; margin: 40px auto;"">
          <div style=""height: 8px; background: linear-gradient(to right, #3498db, #ccc, #e74c3c); border-radius: 4px;""></div>
          <div style=""position: absolute; left: 52.1%; top: -6px; transform: translateX(-50%);"">
            <div style=""width: 14px; height: 14px; background: black; border-radius: 50%; border: 2px solid white;""></div>
          </div>
          <div style=""position: absolute; left: 0%; top: 20px; font-size: 12px;"">–500 ms</div>
          <div style=""position: absolute; left: 50%; top: 20px; font-size: 12px; transform: translateX(-50%);"">0</div>
          <div style=""position: absolute; right: 0%; top: 20px; font-size: 12px;"">+500 ms</div>
        </div>

        <p>Press any key to continue.</p>
      </div>
    ","feedback_text","","","",""
"null","null","html-keyboard-response","211","186416","0.0-211.0","","<p style=""font-size: 48px;"">+</p>","iti","","","",""
"null","null","html-keyboard-response","212","186919","0.0-212.0","","<div class=""circle ready""></div>","ready","","","",""
"null","null","html-keyboard-response","213","187712","0.0-213.0","","","isi","","","",""
"null","null","html-keyboard-response","214","188215","0.0-214.0","","<div class=""circle set""></div>","set","500","","",""
"821"," ","html-keyboard-response","215","189037","0.0-215.0","","","go","","790","821","31"
"null","null","html-keyboard-response","216","189538","0.0-216.0","","<div class=""circle go""></div>","feedback_circle","","","",""
"null","null","html-keyboard-response","217","190041","0.0-217.0","","
      <div style=""text-align:center;"">
        
        <p><strong>Error:</strong> +31 ms</p>

        <div style=""position: relative; width: 80%; height: 40px; margin: 40px auto;"">
          <div style=""height: 8px; background: linear-gradient(to right, #3498db, #ccc, #e74c3c); border-radius: 4px;""></div>
          <div style=""position: absolute; left: 53.1%; top: -6px; transform: translateX(-50%);"">
            <div style=""width: 14px; height: 14px; background: black; border-radius: 50%; border: 2px solid white;""></div>
          </div>
          <div style=""position: absolute; left: 0%; top: 20px; font-size: 12px;"">–500 ms</div>
          <div style=""position: absolute; left: 50%; top: 20px; font-size: 12px; transform: translateX(-50%);"">0</div>
          <div style=""position: absolute; right: 0%; top: 20px; font-size: 12px;"">+500 ms</div>
        </div>

        <p>Press any key to continue.</p>
      </div>
    ","feedback_text","","","",""
"null","null","html-keyboard-response","218","191044","0.0-218.0","","<p style=""font-size: 48px;"">+</p>","iti","","","",""
"null","null","html-keyboard-response","219","191547","0.0-219.0","","<div class=""circle ready""></div>","ready","","","",""
"null","null","html-keyboard-response","220","192219","0.0-220.0","","","isi","","","",""
"null","null","html-keyboard-response","221","192722","0.0-221.0","","<div class=""circle set""></div>","set","500","","",""
"794"," ","html-keyboard-response","222","193518","0.0-222.0","","","go","","670","794","124"
"null","null","html-keyboard-response","223","194020","0.0-223.0","","<div class=""circle go""></div>","feedback_circle","","","",""
"null","null","html-keyboard-response","224","194522","0.0-224.0","","
      <div style=""text-align:center;"">
        
        <p><strong>Error:</strong> +124 ms</p>

        <div style=""position: relative; width: 80%; height: 40px; margin: 40px auto;"">
          <div style=""height: 8px; background: linear-gradient(to right, #3498db, #ccc, #e74c3c); border-radius: 4px;""></div>
          <div style=""position: absolute; left: 62.4%; top: -6px; transform: translateX(-50%);"">
            <div style=""width: 14px; height: 14px; background: black; border-radius: 50%; border: 2px solid white;""></div>
          </div>
          <div style=""position: absolute; left: 0%; top: 20px; font-size: 12px;"">–500 ms</div>
          <div style=""position: absolute; left: 50%; top: 20px; font-size: 12px; transform: translateX(-50%);"">0</div>
          <div style=""position: absolute; right: 0%; top: 20px; font-size: 12px;"">+500 ms</div>
        </div>

        <p>Press any key to continue.</p>
      </div>
    ","feedback_text","","","",""
"null","null","html-keyboard-response","225","195524","0.0-225.0","","<p style=""font-size: 48px;"">+</p>","iti","","","",""
"null","null","html-keyboard-response","226","196027","0.0-226.0","","<div class=""circle ready""></div>","ready","","","",""
"null","null","html-keyboard-response","227","196760","0.0-227.0","","","isi","","","",""
"null","null","html-keyboard-response","228","197264","0.0-228.0","","<div class=""circle set""></div>","set","500","","",""
"724"," ","html-keyboard-response","229","197988","0.0-229.0","","","go","","730","724","-6"
"null","null","html-keyboard-response","230","198491","0.0-230.0","","<div class=""circle go""></div>","feedback_circle","","","",""
"null","null","html-keyboard-response","231","198994","0.0-231.0","","
      <div style=""text-align:center;"">
        
        <p><strong>Error:</strong> -6 ms</p>

        <div style=""position: relative; width: 80%; height: 40px; margin: 40px auto;"">
          <div style=""height: 8px; background: linear-gradient(to right, #3498db, #ccc, #e74c3c); border-radius: 4px;""></div>
          <div style=""position: absolute; left: 49.4%; top: -6px; transform: translateX(-50%);"">
            <div style=""width: 14px; height: 14px; background: black; border-radius: 50%; border: 2px solid white;""></div>
          </div>
          <div style=""position: absolute; left: 0%; top: 20px; font-size: 12px;"">–500 ms</div>
          <div style=""position: absolute; left: 50%; top: 20px; font-size: 12px; transform: translateX(-50%);"">0</div>
          <div style=""position: absolute; right: 0%; top: 20px; font-size: 12px;"">+500 ms</div>
        </div>

        <p>Press any key to continue.</p>
      </div>
    ","feedback_text","","","",""
"null","null","html-keyboard-response","232","199997","0.0-232.0","","<p style=""font-size: 48px;"">+</p>","iti","","","",""
"null","null","html-keyboard-response","233","200500","0.0-233.0","","<div class=""circle ready""></div>","ready","","","",""
"null","null","html-keyboard-response","234","201463","0.0-234.0","","","isi","","","",""
"null","null","html-keyboard-response","235","201965","0.0-235.0","","<div class=""circle set""></div>","set","500","","",""
"1021"," ","html-keyboard-response","236","202988","0.0-236.0","","","go","","960","1021","61"
"null","null","html-keyboard-response","237","203489","0.0-237.0","","<div class=""circle go""></div>","feedback_circle","","","",""
"null","null","html-keyboard-response","238","203992","0.0-238.0","","
      <div style=""text-align:center;"">
        
        <p><strong>Error:</strong> +61 ms</p>

        <div style=""position: relative; width: 80%; height: 40px; margin: 40px auto;"">
          <div style=""height: 8px; background: linear-gradient(to right, #3498db, #ccc, #e74c3c); border-radius: 4px;""></div>
          <div style=""position: absolute; left: 56.10000000000001%; top: -6px; transform: translateX(-50%);"">
            <div style=""width: 14px; height: 14px; background: black; border-radius: 50%; border: 2px solid white;""></div>
          </div>
          <div style=""position: absolute; left: 0%; top: 20px; font-size: 12px;"">–500 ms</div>
          <div style=""position: absolute; left: 50%; top: 20px; font-size: 12px; transform: translateX(-50%);"">0</div>
          <div style=""position: absolute; right: 0%; top: 20px; font-size: 12px;"">+500 ms</div>
        </div>

        <p>Press any key to continue.</p>
      </div>
    ","feedback_text","","","",""
"null","null","html-keyboard-response","239","204995","0.0-239.0","","<p style=""font-size: 48px;"">+</p>","iti","","","",""
"null","null","html-keyboard-response","240","205498","0.0-240.0","","<div class=""circle ready""></div>","ready","","","",""
"null","null","html-keyboard-response","241","206411","0.0-241.0","","","isi","","","",""
"null","null","html-keyboard-response","242","206913","0.0-242.0","","<div class=""circle set""></div>","set","500","","",""
"858"," ","html-keyboard-response","243","207773","0.0-243.0","","","go","","910","858","-52"
"null","null","html-keyboard-response","244","208274","0.0-244.0","","<div class=""circle go""></div>","feedback_circle","","","",""
"null","null","html-keyboard-response","245","208778","0.0-245.0","","
      <div style=""text-align:center;"">
        
        <p><strong>Error:</strong> -52 ms</p>

        <div style=""position: relative; width: 80%; height: 40px; margin: 40px auto;"">
          <div style=""height: 8px; background: linear-gradient(to right, #3498db, #ccc, #e74c3c); border-radius: 4px;""></div>
          <div style=""position: absolute; left: 44.800000000000004%; top: -6px; transform: translateX(-50%);"">
            <div style=""width: 14px; height: 14px; background: black; border-radius: 50%; border: 2px solid white;""></div>
          </div>
          <div style=""position: absolute; left: 0%; top: 20px; font-size: 12px;"">–500 ms</div>
          <div style=""position: absolute; left: 50%; top: 20px; font-size: 12px; transform: translateX(-50%);"">0</div>
          <div style=""position: absolute; right: 0%; top: 20px; font-size: 12px;"">+500 ms</div>
        </div>

        <p>Press any key to continue.</p>
      </div>
    ","feedback_text","","","",""
"null","null","html-keyboard-response","246","209780","0.0-246.0","","<p style=""font-size: 48px;"">+</p>","iti","","","",""
"null","null","html-keyboard-response","247","210283","0.0-247.0","","<div class=""circle ready""></div>","ready","","","",""
"null","null","html-keyboard-response","248","211136","0.0-248.0","","","isi","","","",""
"null","null","html-keyboard-response","249","211639","0.0-249.0","","<div class=""circle set""></div>","set","500","","",""
"916"," ","html-keyboard-response","250","212556","0.0-250.0","","","go","","850","916","66"
"null","null","html-keyboard-response","251","213057","0.0-251.0","","<div class=""circle go""></div>","feedback_circle","","","",""
"null","null","html-keyboard-response","252","213560","0.0-252.0","","
      <div style=""text-align:center;"">
        
        <p><strong>Error:</strong> +66 ms</p>

        <div style=""position: relative; width: 80%; height: 40px; margin: 40px auto;"">
          <div style=""height: 8px; background: linear-gradient(to right, #3498db, #ccc, #e74c3c); border-radius: 4px;""></div>
          <div style=""position: absolute; left: 56.599999999999994%; top: -6px; transform: translateX(-50%);"">
            <div style=""width: 14px; height: 14px; background: black; border-radius: 50%; border: 2px solid white;""></div>
          </div>
          <div style=""position: absolute; left: 0%; top: 20px; font-size: 12px;"">–500 ms</div>
          <div style=""position: absolute; left: 50%; top: 20px; font-size: 12px; transform: translateX(-50%);"">0</div>
          <div style=""position: absolute; right: 0%; top: 20px; font-size: 12px;"">+500 ms</div>
        </div>

        <p>Press any key to continue.</p>
      </div>
    ","feedback_text","","","",""
"null","null","html-keyboard-response","253","214563","0.0-253.0","","<p style=""font-size: 48px;"">+</p>","iti","","","",""
"null","null","html-keyboard-response","254","215065","0.0-254.0","","<div class=""circle ready""></div>","ready","","","",""
"null","null","html-keyboard-response","255","215859","0.0-255.0","","","isi","","","",""
"null","null","html-keyboard-response","256","216362","0.0-256.0","","<div class=""circle set""></div>","set","500","","",""
"820"," ","html-keyboard-response","257","217183","0.0-257.0","","","go","","790","820","30"
"null","null","html-keyboard-response","258","217685","0.0-258.0","","<div class=""circle go""></div>","feedback_circle","","","",""
"null","null","html-keyboard-response","259","218188","0.0-259.0","","
      <div style=""text-align:center;"">
        
        <p><strong>Error:</strong> +30 ms</p>

        <div style=""position: relative; width: 80%; height: 40px; margin: 40px auto;"">
          <div style=""height: 8px; background: linear-gradient(to right, #3498db, #ccc, #e74c3c); border-radius: 4px;""></div>
          <div style=""position: absolute; left: 53%; top: -6px; transform: translateX(-50%);"">
            <div style=""width: 14px; height: 14px; background: black; border-radius: 50%; border: 2px solid white;""></div>
          </div>
          <div style=""position: absolute; left: 0%; top: 20px; font-size: 12px;"">–500 ms</div>
          <div style=""position: absolute; left: 50%; top: 20px; font-size: 12px; transform: translateX(-50%);"">0</div>
          <div style=""position: absolute; right: 0%; top: 20px; font-size: 12px;"">+500 ms</div>
        </div>

        <p>Press any key to continue.</p>
      </div>
    ","feedback_text","","","",""
"null","null","html-keyboard-response","260","219190","0.0-260.0","","<p style=""font-size: 48px;"">+</p>","iti","","","",""
"null","null","html-keyboard-response","261","219693","0.0-261.0","","<div class=""circle ready""></div>","ready","","","",""
"null","null","html-keyboard-response","262","220606","0.0-262.0","","","isi","","","",""
"null","null","html-keyboard-response","263","221109","0.0-263.0","","<div class=""circle set""></div>","set","500","","",""
"889"," ","html-keyboard-response","264","221999","0.0-264.0","","","go","","910","889","-21"
"null","null","html-keyboard-response","265","222502","0.0-265.0","","<div class=""circle go""></div>","feedback_circle","","","",""
"null","null","html-keyboard-response","266","223005","0.0-266.0","","
      <div style=""text-align:center;"">
        
        <p><strong>Error:</strong> -21 ms</p>

        <div style=""position: relative; width: 80%; height: 40px; margin: 40px auto;"">
          <div style=""height: 8px; background: linear-gradient(to right, #3498db, #ccc, #e74c3c); border-radius: 4px;""></div>
          <div style=""position: absolute; left: 47.9%; top: -6px; transform: translateX(-50%);"">
            <div style=""width: 14px; height: 14px; background: black; border-radius: 50%; border: 2px solid white;""></div>
          </div>
          <div style=""position: absolute; left: 0%; top: 20px; font-size: 12px;"">–500 ms</div>
          <div style=""position: absolute; left: 50%; top: 20px; font-size: 12px; transform: translateX(-50%);"">0</div>
          <div style=""position: absolute; right: 0%; top: 20px; font-size: 12px;"">+500 ms</div>
        </div>

        <p>Press any key to continue.</p>
      </div>
    ","feedback_text","","","",""
"null","null","html-keyboard-response","267","224008","0.0-267.0","","<p style=""font-size: 48px;"">+</p>","iti","","","",""
"null","null","html-keyboard-response","268","224511","0.0-268.0","","<div class=""circle ready""></div>","ready","","","",""
"null","null","html-keyboard-response","269","225424","0.0-269.0","","","isi","","","",""
"null","null","html-keyboard-response","270","225927","0.0-270.0","","<div class=""circle set""></div>","set","500","","",""
"958"," ","html-keyboard-response","271","226886","0.0-271.0","","","go","","910","958","48"
"null","null","html-keyboard-response","272","227387","0.0-272.0","","<div class=""circle go""></div>","feedback_circle","","","",""
"null","null","html-keyboard-response","273","227890","0.0-273.0","","
      <div style=""text-align:center;"">
        
        <p><strong>Error:</strong> +48 ms</p>

        <div style=""position: relative; width: 80%; height: 40px; margin: 40px auto;"">
          <div style=""height: 8px; background: linear-gradient(to right, #3498db, #ccc, #e74c3c); border-radius: 4px;""></div>
          <div style=""position: absolute; left: 54.800000000000004%; top: -6px; transform: translateX(-50%);"">
            <div style=""width: 14px; height: 14px; background: black; border-radius: 50%; border: 2px solid white;""></div>
          </div>
          <div style=""position: absolute; left: 0%; top: 20px; font-size: 12px;"">–500 ms</div>
          <div style=""position: absolute; left: 50%; top: 20px; font-size: 12px; transform: translateX(-50%);"">0</div>
          <div style=""position: absolute; right: 0%; top: 20px; font-size: 12px;"">+500 ms</div>
        </div>

        <p>Press any key to continue.</p>
      </div>
    ","feedback_text","","","",""
"null","null","html-keyboard-response","274","228893","0.0-274.0","","<p style=""font-size: 48px;"">+</p>","iti","","","",""
"null","null","html-keyboard-response","275","229396","0.0-275.0","","<div class=""circle ready""></div>","ready","","","",""
"null","null","html-keyboard-response","276","230308","0.0-276.0","","","isi","","","",""
"null","null","html-keyboard-response","277","230810","0.0-277.0","","<div class=""circle set""></div>","set","500","","",""
"936"," ","html-keyboard-response","278","231748","0.0-278.0","","","go","","910","936","26"
"null","null","html-keyboard-response","279","232250","0.0-279.0","","<div class=""circle go""></div>","feedback_circle","","","",""
"null","null","html-keyboard-response","280","232753","0.0-280.0","","
      <div style=""text-align:center;"">
        
        <p><strong>Error:</strong> +26 ms</p>

        <div style=""position: relative; width: 80%; height: 40px; margin: 40px auto;"">
          <div style=""height: 8px; background: linear-gradient(to right, #3498db, #ccc, #e74c3c); border-radius: 4px;""></div>
          <div style=""position: absolute; left: 52.6%; top: -6px; transform: translateX(-50%);"">
            <div style=""width: 14px; height: 14px; background: black; border-radius: 50%; border: 2px solid white;""></div>
          </div>
          <div style=""position: absolute; left: 0%; top: 20px; font-size: 12px;"">–500 ms</div>
          <div style=""position: absolute; left: 50%; top: 20px; font-size: 12px; transform: translateX(-50%);"">0</div>
          <div style=""position: absolute; right: 0%; top: 20px; font-size: 12px;"">+500 ms</div>
        </div>

        <p>Press any key to continue.</p>
      </div>
    ","feedback_text","","","",""
"null","null","html-keyboard-response","281","233755","0.0-281.0","","<p style=""font-size: 48px;"">+</p>","iti","","","",""
"null","null","html-keyboard-response","282","234258","0.0-282.0","","<div class=""circle ready""></div>","ready","","","",""
"null","null","html-keyboard-response","283","235281","0.0-283.0","","","isi","","","",""
"null","null","html-keyboard-response","284","235784","0.0-284.0","","<div class=""circle set""></div>","set","500","","",""
"941"," ","html-keyboard-response","285","236726","0.0-285.0","","","go","","1020","941","-79"
"null","null","html-keyboard-response","286","237228","0.0-286.0","","<div class=""circle go""></div>","feedback_circle","","","",""
"null","null","html-keyboard-response","287","237731","0.0-287.0","","
      <div style=""text-align:center;"">
        
        <p><strong>Error:</strong> -79 ms</p>

        <div style=""position: relative; width: 80%; height: 40px; margin: 40px auto;"">
          <div style=""height: 8px; background: linear-gradient(to right, #3498db, #ccc, #e74c3c); border-radius: 4px;""></div>
          <div style=""position: absolute; left: 42.1%; top: -6px; transform: translateX(-50%);"">
            <div style=""width: 14px; height: 14px; background: black; border-radius: 50%; border: 2px solid white;""></div>
          </div>
          <div style=""position: absolute; left: 0%; top: 20px; font-size: 12px;"">–500 ms</div>
          <div style=""position: absolute; left: 50%; top: 20px; font-size: 12px; transform: translateX(-50%);"">0</div>
          <div style=""position: absolute; right: 0%; top: 20px; font-size: 12px;"">+500 ms</div>
        </div>

        <p>Press any key to continue.</p>
      </div>
    ","feedback_text","","","",""
"null","null","html-keyboard-response","288","238734","0.0-288.0","","<p style=""font-size: 48px;"">+</p>","iti","","","",""
"null","null","html-keyboard-response","289","239237","0.0-289.0","","<div class=""circle ready""></div>","ready","","","",""
"null","null","html-keyboard-response","290","240029","0.0-290.0","","","isi","","","",""
"null","null","html-keyboard-response","291","240532","0.0-291.0","","<div class=""circle set""></div>","set","500","","",""
"933"," ","html-keyboard-response","292","241467","0.0-292.0","","","go","","790","933","143"
"null","null","html-keyboard-response","293","241969","0.0-293.0","","<div class=""circle go""></div>","feedback_circle","","","",""
"null","null","html-keyboard-response","294","242472","0.0-294.0","","
      <div style=""text-align:center;"">
        
        <p><strong>Error:</strong> +143 ms</p>

        <div style=""position: relative; width: 80%; height: 40px; margin: 40px auto;"">
          <div style=""height: 8px; background: linear-gradient(to right, #3498db, #ccc, #e74c3c); border-radius: 4px;""></div>
          <div style=""position: absolute; left: 64.3%; top: -6px; transform: translateX(-50%);"">
            <div style=""width: 14px; height: 14px; background: black; border-radius: 50%; border: 2px solid white;""></div>
          </div>
          <div style=""position: absolute; left: 0%; top: 20px; font-size: 12px;"">–500 ms</div>
          <div style=""position: absolute; left: 50%; top: 20px; font-size: 12px; transform: translateX(-50%);"">0</div>
          <div style=""position: absolute; right: 0%; top: 20px; font-size: 12px;"">+500 ms</div>
        </div>

        <p>Press any key to continue.</p>
      </div>
    ","feedback_text","","","",""
"null","null","html-keyboard-response","295","243475","0.0-295.0","","<p style=""font-size: 48px;"">+</p>","iti","","","",""
"null","null","html-keyboard-response","296","243979","0.0-296.0","","<div class=""circle ready""></div>","ready","","","",""
"null","null","html-keyboard-response","297","244771","0.0-297.0","","","isi","","","",""
"null","null","html-keyboard-response","298","245274","0.0-298.0","","<div class=""circle set""></div>","set","500","","",""
"930"," ","html-keyboard-response","299","246205","0.0-299.0","","","go","","790","930","140"
"null","null","html-keyboard-response","300","246707","0.0-300.0","","<div class=""circle go""></div>","feedback_circle","","","",""
"null","null","html-keyboard-response","301","247210","0.0-301.0","","
      <div style=""text-align:center;"">
        
        <p><strong>Error:</strong> +140 ms</p>

        <div style=""position: relative; width: 80%; height: 40px; margin: 40px auto;"">
          <div style=""height: 8px; background: linear-gradient(to right, #3498db, #ccc, #e74c3c); border-radius: 4px;""></div>
          <div style=""position: absolute; left: 64%; top: -6px; transform: translateX(-50%);"">
            <div style=""width: 14px; height: 14px; background: black; border-radius: 50%; border: 2px solid white;""></div>
          </div>
          <div style=""position: absolute; left: 0%; top: 20px; font-size: 12px;"">–500 ms</div>
          <div style=""position: absolute; left: 50%; top: 20px; font-size: 12px; transform: translateX(-50%);"">0</div>
          <div style=""position: absolute; right: 0%; top: 20px; font-size: 12px;"">+500 ms</div>
        </div>

        <p>Press any key to continue.</p>
      </div>
    ","feedback_text","","","",""
"null","null","html-keyboard-response","302","248211","0.0-302.0","","<p style=""font-size: 48px;"">+</p>","iti","","","",""
"null","null","html-keyboard-response","303","248714","0.0-303.0","","<div class=""circle ready""></div>","ready","","","",""
"null","null","html-keyboard-response","304","249626","0.0-304.0","","","isi","","","",""
"null","null","html-keyboard-response","305","250129","0.0-305.0","","<div class=""circle set""></div>","set","500","","",""
"798"," ","html-keyboard-response","306","250929","0.0-306.0","","","go","","910","798","-112"
"null","null","html-keyboard-response","307","251431","0.0-307.0","","<div class=""circle go""></div>","feedback_circle","","","",""
"null","null","html-keyboard-response","308","251933","0.0-308.0","","
      <div style=""text-align:center;"">
        
        <p><strong>Error:</strong> -112 ms</p>

        <div style=""position: relative; width: 80%; height: 40px; margin: 40px auto;"">
          <div style=""height: 8px; background: linear-gradient(to right, #3498db, #ccc, #e74c3c); border-radius: 4px;""></div>
          <div style=""position: absolute; left: 38.800000000000004%; top: -6px; transform: translateX(-50%);"">
            <div style=""width: 14px; height: 14px; background: black; border-radius: 50%; border: 2px solid white;""></div>
          </div>
          <div style=""position: absolute; left: 0%; top: 20px; font-size: 12px;"">–500 ms</div>
          <div style=""position: absolute; left: 50%; top: 20px; font-size: 12px; transform: translateX(-50%);"">0</div>
          <div style=""position: absolute; right: 0%; top: 20px; font-size: 12px;"">+500 ms</div>
        </div>

        <p>Press any key to continue.</p>
      </div>
    ","feedback_text","","","",""
"null","null","html-keyboard-response","309","252937","0.0-309.0","","<p style=""font-size: 48px;"">+</p>","iti","","","",""
"null","null","html-keyboard-response","310","253439","0.0-310.0","","<div class=""circle ready""></div>","ready","","","",""
"null","null","html-keyboard-response","311","254353","0.0-311.0","","","isi","","","",""
"null","null","html-keyboard-response","312","254856","0.0-312.0","","<div class=""circle set""></div>","set","500","","",""
"970"," ","html-keyboard-response","313","255827","0.0-313.0","","","go","","910","970","60"
"null","null","html-keyboard-response","314","256328","0.0-314.0","","<div class=""circle go""></div>","feedback_circle","","","",""
"null","null","html-keyboard-response","315","256831","0.0-315.0","","
      <div style=""text-align:center;"">
        
        <p><strong>Error:</strong> +60 ms</p>

        <div style=""position: relative; width: 80%; height: 40px; margin: 40px auto;"">
          <div style=""height: 8px; background: linear-gradient(to right, #3498db, #ccc, #e74c3c); border-radius: 4px;""></div>
          <div style=""position: absolute; left: 56.00000000000001%; top: -6px; transform: translateX(-50%);"">
            <div style=""width: 14px; height: 14px; background: black; border-radius: 50%; border: 2px solid white;""></div>
          </div>
          <div style=""position: absolute; left: 0%; top: 20px; font-size: 12px;"">–500 ms</div>
          <div style=""position: absolute; left: 50%; top: 20px; font-size: 12px; transform: translateX(-50%);"">0</div>
          <div style=""position: absolute; right: 0%; top: 20px; font-size: 12px;"">+500 ms</div>
        </div>

        <p>Press any key to continue.</p>
      </div>
    ","feedback_text","","","",""
"null","null","html-keyboard-response","316","257835","0.0-316.0","","<p style=""font-size: 48px;"">+</p>","iti","","","",""
"null","null","html-keyboard-response","317","258337","0.0-317.0","","<div class=""circle ready""></div>","ready","","","",""
"null","null","html-keyboard-response","318","259360","0.0-318.0","","","isi","","","",""
"null","null","html-keyboard-response","319","259863","0.0-319.0","","<div class=""circle set""></div>","set","500","","",""
"1014"," ","html-keyboard-response","320","260879","0.0-320.0","","","go","","1020","1014","-6"
"null","null","html-keyboard-response","321","261381","0.0-321.0","","<div class=""circle go""></div>","feedback_circle","","","",""
"null","null","html-keyboard-response","322","261884","0.0-322.0","","
      <div style=""text-align:center;"">
        
        <p><strong>Error:</strong> -6 ms</p>

        <div style=""position: relative; width: 80%; height: 40px; margin: 40px auto;"">
          <div style=""height: 8px; background: linear-gradient(to right, #3498db, #ccc, #e74c3c); border-radius: 4px;""></div>
          <div style=""position: absolute; left: 49.4%; top: -6px; transform: translateX(-50%);"">
            <div style=""width: 14px; height: 14px; background: black; border-radius: 50%; border: 2px solid white;""></div>
          </div>
          <div style=""position: absolute; left: 0%; top: 20px; font-size: 12px;"">–500 ms</div>
          <div style=""position: absolute; left: 50%; top: 20px; font-size: 12px; transform: translateX(-50%);"">0</div>
          <div style=""position: absolute; right: 0%; top: 20px; font-size: 12px;"">+500 ms</div>
        </div>

        <p>Press any key to continue.</p>
      </div>
    ","feedback_text","","","",""
"null","null","html-keyboard-response","323","262887","0.0-323.0","","<p style=""font-size: 48px;"">+</p>","iti","","","",""
"null","null","html-keyboard-response","324","263390","0.0-324.0","","<div class=""circle ready""></div>","ready","","","",""
"null","null","html-keyboard-response","325","264303","0.0-325.0","","","isi","","","",""
"null","null","html-keyboard-response","326","264806","0.0-326.0","","<div class=""circle set""></div>","set","500","","",""
"1024"," ","html-keyboard-response","327","265831","0.0-327.0","","","go","","910","1024","114"
"null","null","html-keyboard-response","328","266333","0.0-328.0","","<div class=""circle go""></div>","feedback_circle","","","",""
"null","null","html-keyboard-response","329","266836","0.0-329.0","","
      <div style=""text-align:center;"">
        
        <p><strong>Error:</strong> +114 ms</p>

        <div style=""position: relative; width: 80%; height: 40px; margin: 40px auto;"">
          <div style=""height: 8px; background: linear-gradient(to right, #3498db, #ccc, #e74c3c); border-radius: 4px;""></div>
          <div style=""position: absolute; left: 61.4%; top: -6px; transform: translateX(-50%);"">
            <div style=""width: 14px; height: 14px; background: black; border-radius: 50%; border: 2px solid white;""></div>
          </div>
          <div style=""position: absolute; left: 0%; top: 20px; font-size: 12px;"">–500 ms</div>
          <div style=""position: absolute; left: 50%; top: 20px; font-size: 12px; transform: translateX(-50%);"">0</div>
          <div style=""position: absolute; right: 0%; top: 20px; font-size: 12px;"">+500 ms</div>
        </div>

        <p>Press any key to continue.</p>
      </div>
    ","feedback_text","","","",""
"null","null","html-keyboard-response","330","267840","0.0-330.0","","<p style=""font-size: 48px;"">+</p>","iti","","","",""
"null","null","html-keyboard-response","331","268342","0.0-331.0","","<div class=""circle ready""></div>","ready","","","",""
"null","null","html-keyboard-response","332","269255","0.0-332.0","","","isi","","","",""
"null","null","html-keyboard-response","333","269757","0.0-333.0","","<div class=""circle set""></div>","set","500","","",""
"952"," ","html-keyboard-response","334","270710","0.0-334.0","","","go","","910","952","42"
"null","null","html-keyboard-response","335","271212","0.0-335.0","","<div class=""circle go""></div>","feedback_circle","","","",""
"null","null","html-keyboard-response","336","271716","0.0-336.0","","
      <div style=""text-align:center;"">
        
        <p><strong>Error:</strong> +42 ms</p>

        <div style=""position: relative; width: 80%; height: 40px; margin: 40px auto;"">
          <div style=""height: 8px; background: linear-gradient(to right, #3498db, #ccc, #e74c3c); border-radius: 4px;""></div>
          <div style=""position: absolute; left: 54.2%; top: -6px; transform: translateX(-50%);"">
            <div style=""width: 14px; height: 14px; background: black; border-radius: 50%; border: 2px solid white;""></div>
          </div>
          <div style=""position: absolute; left: 0%; top: 20px; font-size: 12px;"">–500 ms</div>
          <div style=""position: absolute; left: 50%; top: 20px; font-size: 12px; transform: translateX(-50%);"">0</div>
          <div style=""position: absolute; right: 0%; top: 20px; font-size: 12px;"">+500 ms</div>
        </div>

        <p>Press any key to continue.</p>
      </div>
    ","feedback_text","","","",""
"null","null","html-keyboard-response","337","272719","0.0-337.0","","<p style=""font-size: 48px;"">+</p>","iti","","","",""
"null","null","html-keyboard-response","338","273222","0.0-338.0","","<div class=""circle ready""></div>","ready","","","",""
"null","null","html-keyboard-response","339","274135","0.0-339.0","","","isi","","","",""
"null","null","html-keyboard-response","340","274638","0.0-340.0","","<div class=""circle set""></div>","set","500","","",""
"895"," ","html-keyboard-response","341","275534","0.0-341.0","","","go","","910","895","-15"
"null","null","html-keyboard-response","342","276036","0.0-342.0","","<div class=""circle go""></div>","feedback_circle","","","",""
"null","null","html-keyboard-response","343","276539","0.0-343.0","","
      <div style=""text-align:center;"">
        
        <p><strong>Error:</strong> -15 ms</p>

        <div style=""position: relative; width: 80%; height: 40px; margin: 40px auto;"">
          <div style=""height: 8px; background: linear-gradient(to right, #3498db, #ccc, #e74c3c); border-radius: 4px;""></div>
          <div style=""position: absolute; left: 48.5%; top: -6px; transform: translateX(-50%);"">
            <div style=""width: 14px; height: 14px; background: black; border-radius: 50%; border: 2px solid white;""></div>
          </div>
          <div style=""position: absolute; left: 0%; top: 20px; font-size: 12px;"">–500 ms</div>
          <div style=""position: absolute; left: 50%; top: 20px; font-size: 12px; transform: translateX(-50%);"">0</div>
          <div style=""position: absolute; right: 0%; top: 20px; font-size: 12px;"">+500 ms</div>
        </div>

        <p>Press any key to continue.</p>
      </div>
    ","feedback_text","","","",""
"null","null","html-keyboard-response","344","277541","0.0-344.0","","<p style=""font-size: 48px;"">+</p>","iti","","","",""
"null","null","html-keyboard-response","345","278044","0.0-345.0","","<div class=""circle ready""></div>","ready","","","",""
"null","null","html-keyboard-response","346","278956","0.0-346.0","","","isi","","","",""
"null","null","html-keyboard-response","347","279459","0.0-347.0","","<div class=""circle set""></div>","set","500","","",""
"899"," ","html-keyboard-response","348","280359","0.0-348.0","","","go","","910","899","-11"
"null","null","html-keyboard-response","349","280861","0.0-349.0","","<div class=""circle go""></div>","feedback_circle","","","",""
"null","null","html-keyboard-response","350","281363","0.0-350.0","","
      <div style=""text-align:center;"">
        
        <p><strong>Error:</strong> -11 ms</p>

        <div style=""position: relative; width: 80%; height: 40px; margin: 40px auto;"">
          <div style=""height: 8px; background: linear-gradient(to right, #3498db, #ccc, #e74c3c); border-radius: 4px;""></div>
          <div style=""position: absolute; left: 48.9%; top: -6px; transform: translateX(-50%);"">
            <div style=""width: 14px; height: 14px; background: black; border-radius: 50%; border: 2px solid white;""></div>
          </div>
          <div style=""position: absolute; left: 0%; top: 20px; font-size: 12px;"">–500 ms</div>
          <div style=""position: absolute; left: 50%; top: 20px; font-size: 12px; transform: translateX(-50%);"">0</div>
          <div style=""position: absolute; right: 0%; top: 20px; font-size: 12px;"">+500 ms</div>
        </div>

        <p>Press any key to continue.</p>
      </div>
    ","feedback_text","","","",""
"null","null","html-keyboard-response","351","282365","0.0-351.0","","<p style=""font-size: 48px;"">+</p>","iti","","","",""
"null","null","html-keyboard-response","352","282868","0.0-352.0","","<div class=""circle ready""></div>","ready","","","",""
"null","null","html-keyboard-response","353","283660","0.0-353.0","","","isi","","","",""
"null","null","html-keyboard-response","354","284163","0.0-354.0","","<div class=""circle set""></div>","set","500","","",""
"977"," ","html-keyboard-response","355","285141","0.0-355.0","","","go","","790","977","187"
"null","null","html-keyboard-response","356","285643","0.0-356.0","","<div class=""circle go""></div>","feedback_circle","","","",""
"null","null","html-keyboard-response","357","286147","0.0-357.0","","
      <div style=""text-align:center;"">
        
        <p><strong>Error:</strong> +187 ms</p>

        <div style=""position: relative; width: 80%; height: 40px; margin: 40px auto;"">
          <div style=""height: 8px; background: linear-gradient(to right, #3498db, #ccc, #e74c3c); border-radius: 4px;""></div>
          <div style=""position: absolute; left: 68.7%; top: -6px; transform: translateX(-50%);"">
            <div style=""width: 14px; height: 14px; background: black; border-radius: 50%; border: 2px solid white;""></div>
          </div>
          <div style=""position: absolute; left: 0%; top: 20px; font-size: 12px;"">–500 ms</div>
          <div style=""position: absolute; left: 50%; top: 20px; font-size: 12px; transform: translateX(-50%);"">0</div>
          <div style=""position: absolute; right: 0%; top: 20px; font-size: 12px;"">+500 ms</div>
        </div>

        <p>Press any key to continue.</p>
      </div>
    ","feedback_text","","","",""
"null","null","html-keyboard-response","358","287150","0.0-358.0","","<p style=""font-size: 48px;"">+</p>","iti","","","",""
"null","null","html-keyboard-response","359","287652","0.0-359.0","","<div class=""circle ready""></div>","ready","","","",""
"null","null","html-keyboard-response","360","288565","0.0-360.0","","","isi","","","",""
"null","null","html-keyboard-response","361","289067","0.0-361.0","","<div class=""circle set""></div>","set","500","","",""
"913"," ","html-keyboard-response","362","289981","0.0-362.0","","","go","","910","913","3"
"null","null","html-keyboard-response","363","290484","0.0-363.0","","<div class=""circle go""></div>","feedback_circle","","","",""
"null","null","html-keyboard-response","364","290987","0.0-364.0","","
      <div style=""text-align:center;"">
        
        <p><strong>Error:</strong> +3 ms</p>

        <div style=""position: relative; width: 80%; height: 40px; margin: 40px auto;"">
          <div style=""height: 8px; background: linear-gradient(to right, #3498db, #ccc, #e74c3c); border-radius: 4px;""></div>
          <div style=""position: absolute; left: 50.3%; top: -6px; transform: translateX(-50%);"">
            <div style=""width: 14px; height: 14px; background: black; border-radius: 50%; border: 2px solid white;""></div>
          </div>
          <div style=""position: absolute; left: 0%; top: 20px; font-size: 12px;"">–500 ms</div>
          <div style=""position: absolute; left: 50%; top: 20px; font-size: 12px; transform: translateX(-50%);"">0</div>
          <div style=""position: absolute; right: 0%; top: 20px; font-size: 12px;"">+500 ms</div>
        </div>

        <p>Press any key to continue.</p>
      </div>
    ","feedback_text","","","",""
"null","null","html-keyboard-response","365","291990","0.0-365.0","","<p style=""font-size: 48px;"">+</p>","iti","","","",""
"null","null","html-keyboard-response","366","292493","0.0-366.0","","<div class=""circle ready""></div>","ready","","","",""
"null","null","html-keyboard-response","367","293406","0.0-367.0","","","isi","","","",""
"null","null","html-keyboard-response","368","293908","0.0-368.0","","<div class=""circle set""></div>","set","500","","",""
"1025"," ","html-keyboard-response","369","294934","0.0-369.0","","","go","","910","1025","115"
"null","null","html-keyboard-response","370","295436","0.0-370.0","","<div class=""circle go""></div>","feedback_circle","","","",""
"null","null","html-keyboard-response","371","295939","0.0-371.0","","
      <div style=""text-align:center;"">
        
        <p><strong>Error:</strong> +115 ms</p>

        <div style=""position: relative; width: 80%; height: 40px; margin: 40px auto;"">
          <div style=""height: 8px; background: linear-gradient(to right, #3498db, #ccc, #e74c3c); border-radius: 4px;""></div>
          <div style=""position: absolute; left: 61.5%; top: -6px; transform: translateX(-50%);"">
            <div style=""width: 14px; height: 14px; background: black; border-radius: 50%; border: 2px solid white;""></div>
          </div>
          <div style=""position: absolute; left: 0%; top: 20px; font-size: 12px;"">–500 ms</div>
          <div style=""position: absolute; left: 50%; top: 20px; font-size: 12px; transform: translateX(-50%);"">0</div>
          <div style=""position: absolute; right: 0%; top: 20px; font-size: 12px;"">+500 ms</div>
        </div>

        <p>Press any key to continue.</p>
      </div>
    ","feedback_text","","","",""
"null","null","html-keyboard-response","372","296942","0.0-372.0","","<p style=""font-size: 48px;"">+</p>","iti","","","",""
"null","null","html-keyboard-response","373","297445","0.0-373.0","","<div class=""circle ready""></div>","ready","","","",""
"null","null","html-keyboard-response","374","298177","0.0-374.0","","","isi","","","",""
"null","null","html-keyboard-response","375","298680","0.0-375.0","","<div class=""circle set""></div>","set","500","","",""
"975"," ","html-keyboard-response","376","299657","0.0-376.0","","","go","","730","975","245"
"null","null","html-keyboard-response","377","300159","0.0-377.0","","<div class=""circle go""></div>","feedback_circle","","","",""
"null","null","html-keyboard-response","378","300662","0.0-378.0","","
      <div style=""text-align:center;"">
        
        <p><strong>Error:</strong> +245 ms</p>

        <div style=""position: relative; width: 80%; height: 40px; margin: 40px auto;"">
          <div style=""height: 8px; background: linear-gradient(to right, #3498db, #ccc, #e74c3c); border-radius: 4px;""></div>
          <div style=""position: absolute; left: 74.5%; top: -6px; transform: translateX(-50%);"">
            <div style=""width: 14px; height: 14px; background: black; border-radius: 50%; border: 2px solid white;""></div>
          </div>
          <div style=""position: absolute; left: 0%; top: 20px; font-size: 12px;"">–500 ms</div>
          <div style=""position: absolute; left: 50%; top: 20px; font-size: 12px; transform: translateX(-50%);"">0</div>
          <div style=""position: absolute; right: 0%; top: 20px; font-size: 12px;"">+500 ms</div>
        </div>

        <p>Press any key to continue.</p>
      </div>
    ","feedback_text","","","",""
"null","null","html-keyboard-response","379","301664","0.0-379.0","","<p style=""font-size: 48px;"">+</p>","iti","","","",""
"null","null","html-keyboard-response","380","302167","0.0-380.0","","<div class=""circle ready""></div>","ready","","","",""
"null","null","html-keyboard-response","381","303020","0.0-381.0","","","isi","","","",""
"null","null","html-keyboard-response","382","303523","0.0-382.0","","<div class=""circle set""></div>","set","500","","",""
"933"," ","html-keyboard-response","383","304457","0.0-383.0","","","go","","850","933","83"
"null","null","html-keyboard-response","384","304959","0.0-384.0","","<div class=""circle go""></div>","feedback_circle","","","",""
"null","null","html-keyboard-response","385","305463","0.0-385.0","","
      <div style=""text-align:center;"">
        
        <p><strong>Error:</strong> +83 ms</p>

        <div style=""position: relative; width: 80%; height: 40px; margin: 40px auto;"">
          <div style=""height: 8px; background: linear-gradient(to right, #3498db, #ccc, #e74c3c); border-radius: 4px;""></div>
          <div style=""position: absolute; left: 58.3%; top: -6px; transform: translateX(-50%);"">
            <div style=""width: 14px; height: 14px; background: black; border-radius: 50%; border: 2px solid white;""></div>
          </div>
          <div style=""position: absolute; left: 0%; top: 20px; font-size: 12px;"">–500 ms</div>
          <div style=""position: absolute; left: 50%; top: 20px; font-size: 12px; transform: translateX(-50%);"">0</div>
          <div style=""position: absolute; right: 0%; top: 20px; font-size: 12px;"">+500 ms</div>
        </div>

        <p>Press any key to continue.</p>
      </div>
    ","feedback_text","","","",""
"null","null","html-keyboard-response","386","306465","0.0-386.0","","<p style=""font-size: 48px;"">+</p>","iti","","","",""
"null","null","html-keyboard-response","387","306966","0.0-387.0","","<div class=""circle ready""></div>","ready","","","",""
"null","null","html-keyboard-response","388","307758","0.0-388.0","","","isi","","","",""
"null","null","html-keyboard-response","389","308260","0.0-389.0","","<div class=""circle set""></div>","set","500","","",""
"824"," ","html-keyboard-response","390","309085","0.0-390.0","","","go","","790","824","34"
"null","null","html-keyboard-response","391","309587","0.0-391.0","","<div class=""circle go""></div>","feedback_circle","","","",""
"null","null","html-keyboard-response","392","310089","0.0-392.0","","
      <div style=""text-align:center;"">
        
        <p><strong>Error:</strong> +34 ms</p>

        <div style=""position: relative; width: 80%; height: 40px; margin: 40px auto;"">
          <div style=""height: 8px; background: linear-gradient(to right, #3498db, #ccc, #e74c3c); border-radius: 4px;""></div>
          <div style=""position: absolute; left: 53.400000000000006%; top: -6px; transform: translateX(-50%);"">
            <div style=""width: 14px; height: 14px; background: black; border-radius: 50%; border: 2px solid white;""></div>
          </div>
          <div style=""position: absolute; left: 0%; top: 20px; font-size: 12px;"">–500 ms</div>
          <div style=""position: absolute; left: 50%; top: 20px; font-size: 12px; transform: translateX(-50%);"">0</div>
          <div style=""position: absolute; right: 0%; top: 20px; font-size: 12px;"">+500 ms</div>
        </div>

        <p>Press any key to continue.</p>
      </div>
    ","feedback_text","","","",""
"null","null","html-keyboard-response","393","311091","0.0-393.0","","<p style=""font-size: 48px;"">+</p>","iti","","","",""
"null","null","html-keyboard-response","394","311594","0.0-394.0","","<div class=""circle ready""></div>","ready","","","",""
"null","null","html-keyboard-response","395","312267","0.0-395.0","","","isi","","","",""
"null","null","html-keyboard-response","396","312770","0.0-396.0","","<div class=""circle set""></div>","set","500","","",""
"784"," ","html-keyboard-response","397","313555","0.0-397.0","","","go","","670","784","114"
"null","null","html-keyboard-response","398","314057","0.0-398.0","","<div class=""circle go""></div>","feedback_circle","","","",""
"null","null","html-keyboard-response","399","314561","0.0-399.0","","
      <div style=""text-align:center;"">
        
        <p><strong>Error:</strong> +114 ms</p>

        <div style=""position: relative; width: 80%; height: 40px; margin: 40px auto;"">
          <div style=""height: 8px; background: linear-gradient(to right, #3498db, #ccc, #e74c3c); border-radius: 4px;""></div>
          <div style=""position: absolute; left: 61.4%; top: -6px; transform: translateX(-50%);"">
            <div style=""width: 14px; height: 14px; background: black; border-radius: 50%; border: 2px solid white;""></div>
          </div>
