"rt","response","trial_type","trial_index","time_elapsed","internal_node_id","subject_ID","stimulus","phase","set_duration","target_interval","reproduced_interval","reproduction_error"
"1086","{""subject_id"":""adi""}","survey-text","0","1090","0.0-0.0","","","","","","",""
"1239"," ","html-keyboard-response","1","2332","0.0-1.0","","
      <p>Ready-Set-Go Task:</p>
      <ul style=""text-align:left; max-width:600px; margin:auto;"">
        <li>First, a <strong>red circle (""Ready"")</strong> appears</li>
        <li>Then, after a delay, an <strong>orange circle (""Set"")</strong> appears</li>
        <li>After ""Set"" disappears, screen goes blank</li>
        <li>You must <strong>press SPACE</strong> when you think the same delay has passed</li>
        <li>After you press, a green circle will appear</li>
        <li>Then you'll see how close your timing was (only for the first 5 trials).</li>
      </ul>
      <p>Press any key to begin.</p>
    ","","","","",""
"null","null","html-keyboard-response","2","2834","0.0-2.0","","<div class=""circle ready""></div>","ready","","","",""
"null","null","html-keyboard-response","3","4537","0.0-3.0","","","isi","","","",""
"null","null","html-keyboard-response","4","5039","0.0-4.0","","<div class=""circle set""></div>","set","500","","",""
"1442"," ","html-keyboard-response","5","6482","0.0-5.0","","","go","","1700","1442","-258"
"null","null","html-keyboard-response","6","6983","0.0-6.0","","<div class=""circle""></div>","feedback_circle","","","",""
"null","null","html-keyboard-response","7","7485","0.0-7.0","","<div class=""circle""></div>","feedback_circle","","","",""
"2182"," ","html-keyboard-response","8","9670","0.0-8.0","","
      <p><strong>Interval you saw:</strong> 1700 ms</p>
      <p><strong>Interval you reported:</strong> 1442 ms</p>
      <p><strong>Error:</strong> -258 ms</p>
      <p>Press any key to continue.</p>
    ","feedback_text","","","",""
"null","null","html-keyboard-response","9","10673","0.0-9.0","","<p style=""font-size: 48px;"">+</p>","iti","","","",""
"null","null","html-keyboard-response","10","11175","0.0-10.0","","<div class=""circle ready""></div>","ready","","","",""
"null","null","html-keyboard-response","11","12278","0.0-11.0","","","isi","","","",""
"null","null","html-keyboard-response","12","12780","0.0-12.0","","<div class=""circle set""></div>","set","500","","",""
"980"," ","html-keyboard-response","13","13761","0.0-13.0","","","go","","1100","980","-120"
"null","null","html-keyboard-response","14","14263","0.0-14.0","","<div class=""circle""></div>","feedback_circle","","","",""
"null","null","html-keyboard-response","15","14765","0.0-15.0","","<div class=""circle""></div>","feedback_circle","","","",""
"1430"," ","html-keyboard-response","16","16196","0.0-16.0","","
      <p><strong>Interval you saw:</strong> 1100 ms</p>
      <p><strong>Interval you reported:</strong> 980 ms</p>
      <p><strong>Error:</strong> -120 ms</p>
      <p>Press any key to continue.</p>
    ","feedback_text","","","",""
"null","null","html-keyboard-response","17","17199","0.0-17.0","","<p style=""font-size: 48px;"">+</p>","iti","","","",""
"null","null","html-keyboard-response","18","17701","0.0-18.0","","<div class=""circle ready""></div>","ready","","","",""
"null","null","html-keyboard-response","19","19203","0.0-19.0","","","isi","","","",""
"null","null","html-keyboard-response","20","19706","0.0-20.0","","<div class=""circle set""></div>","set","500","","",""
"1395"," ","html-keyboard-response","21","21102","0.0-21.0","","","go","","1500","1395","-105"
"null","null","html-keyboard-response","22","21603","0.0-22.0","","<div class=""circle""></div>","feedback_circle","","","",""
"null","null","html-keyboard-response","23","22105","0.0-23.0","","<div class=""circle""></div>","feedback_circle","","","",""
"1520"," ","html-keyboard-response","24","23626","0.0-24.0","","
      <p><strong>Interval you saw:</strong> 1500 ms</p>
      <p><strong>Interval you reported:</strong> 1395 ms</p>
      <p><strong>Error:</strong> -105 ms</p>
      <p>Press any key to continue.</p>
    ","feedback_text","","","",""
"null","null","html-keyboard-response","25","24628","0.0-25.0","","<p style=""font-size: 48px;"">+</p>","iti","","","",""
"null","null","html-keyboard-response","26","25130","0.0-26.0","","<div class=""circle ready""></div>","ready","","","",""
"null","null","html-keyboard-response","27","26532","0.0-27.0","","","isi","","","",""
"null","null","html-keyboard-response","28","27035","0.0-28.0","","<div class=""circle set""></div>","set","500","","",""
"1818"," ","html-keyboard-response","29","28854","0.0-29.0","","","go","","1400","1818","418"
"null","null","html-keyboard-response","30","29355","0.0-30.0","","<div class=""circle""></div>","feedback_circle","","","",""
"null","null","html-keyboard-response","31","29857","0.0-31.0","","<div class=""circle""></div>","feedback_circle","","","",""
"1990"," ","html-keyboard-response","32","31848","0.0-32.0","","
      <p><strong>Interval you saw:</strong> 1400 ms</p>
      <p><strong>Interval you reported:</strong> 1818 ms</p>
      <p><strong>Error:</strong> +418 ms</p>
      <p>Press any key to continue.</p>
    ","feedback_text","","","",""
"null","null","html-keyboard-response","33","32851","0.0-33.0","","<p style=""font-size: 48px;"">+</p>","iti","","","",""
"null","null","html-keyboard-response","34","33353","0.0-34.0","","<div class=""circle ready""></div>","ready","","","",""
"null","null","html-keyboard-response","35","34956","0.0-35.0","","","isi","","","",""
"null","null","html-keyboard-response","36","35458","0.0-36.0","","<div class=""circle set""></div>","set","500","","",""
"1538"," ","html-keyboard-response","37","36997","0.0-37.0","","","go","","1600","1538","-62"
"null","null","html-keyboard-response","38","37499","0.0-38.0","","<div class=""circle""></div>","feedback_circle","","","",""
"null","null","html-keyboard-response","39","38000","0.0-39.0","","<div class=""circle""></div>","feedback_circle","","","",""
"1763"," ","html-keyboard-response","40","39764","0.0-40.0","","
      <p><strong>Interval you saw:</strong> 1600 ms</p>
      <p><strong>Interval you reported:</strong> 1538 ms</p>
      <p><strong>Error:</strong> -62 ms</p>
      <p>Press any key to continue.</p>
    ","feedback_text","","","",""
"null","null","html-keyboard-response","41","40766","0.0-41.0","","<p style=""font-size: 48px;"">+</p>","iti","","","",""
"null","null","html-keyboard-response","42","41268","0.0-42.0","","<div class=""circle ready""></div>","ready","","","",""
"null","null","html-keyboard-response","43","42870","0.0-43.0","","","isi","","","",""
"null","null","html-keyboard-response","44","43373","0.0-44.0","","<div class=""circle set""></div>","set","500","","",""
"1452"," ","html-keyboard-response","45","44825","0.0-45.0","","","go","","1600","1452","-148"
"null","null","html-keyboard-response","46","45327","0.0-46.0","","<div class=""circle""></div>","feedback_circle","","","",""
"null","null","html-keyboard-response","47","46330","0.0-47.0","","<div style=""font-size: 48px;"">+</div>
            <p style=""font-size: 16px; text-align: center;"">Trial 7 of 300</p>","iti","","","",""
"null","null","html-keyboard-response","48","46833","0.0-48.0","","<div class=""circle ready""></div>","ready","","","",""
"null","null","html-keyboard-response","49","48435","0.0-49.0","","","isi","","","",""
"null","null","html-keyboard-response","50","48938","0.0-50.0","","<div class=""circle set""></div>","set","500","","",""
"1225"," ","html-keyboard-response","51","50164","0.0-51.0","","","go","","1600","1225","-375"
"null","null","html-keyboard-response","52","50665","0.0-52.0","","<div class=""circle""></div>","feedback_circle","","","",""
"null","null","html-keyboard-response","53","51668","0.0-53.0","","<div style=""font-size: 48px;"">+</div>
            <p style=""font-size: 16px; text-align: center;"">Trial 8 of 300</p>","iti","","","",""
"null","null","html-keyboard-response","54","52171","0.0-54.0","","<div class=""circle ready""></div>","ready","","","",""
"null","null","html-keyboard-response","55","53474","0.0-55.0","","","isi","","","",""
"null","null","html-keyboard-response","56","53976","0.0-56.0","","<div class=""circle set""></div>","set","500","","",""
"1198"," ","html-keyboard-response","57","55174","0.0-57.0","","","go","","1300","1198","-102"
"null","null","html-keyboard-response","58","55676","0.0-58.0","","<div class=""circle""></div>","feedback_circle","","","",""
"null","null","html-keyboard-response","59","56679","0.0-59.0","","<div style=""font-size: 48px;"">+</div>
            <p style=""font-size: 16px; text-align: center;"">Trial 9 of 300</p>","iti","","","",""
"null","null","html-keyboard-response","60","57181","0.0-60.0","","<div class=""circle ready""></div>","ready","","","",""
"null","null","html-keyboard-response","61","58783","0.0-61.0","","","isi","","","",""
"null","null","html-keyboard-response","62","59286","0.0-62.0","","<div class=""circle set""></div>","set","500","","",""
"1397"," ","html-keyboard-response","63","60683","0.0-63.0","","","go","","1600","1397","-203"
"null","null","html-keyboard-response","64","61185","0.0-64.0","","<div class=""circle""></div>","feedback_circle","","","",""
"null","null","html-keyboard-response","65","62188","0.0-65.0","","<div style=""font-size: 48px;"">+</div>
            <p style=""font-size: 16px; text-align: center;"">Trial 10 of 300</p>","iti","","","",""
"null","null","html-keyboard-response","66","62691","0.0-66.0","","<div class=""circle ready""></div>","ready","","","",""
"null","null","html-keyboard-response","67","64393","0.0-67.0","","","isi","","","",""
"null","null","html-keyboard-response","68","64896","0.0-68.0","","<div class=""circle set""></div>","set","500","","",""
"1713"," ","html-keyboard-response","69","66609","0.0-69.0","","","go","","1700","1713","13"
"null","null","html-keyboard-response","70","67110","0.0-70.0","","<div class=""circle""></div>","feedback_circle","","","",""
"null","null","html-keyboard-response","71","68112","0.0-71.0","","<div style=""font-size: 48px;"">+</div>
            <p style=""font-size: 16px; text-align: center;"">Trial 11 of 300</p>","iti","","","",""
"null","null","html-keyboard-response","72","68615","0.0-72.0","","<div class=""circle ready""></div>","ready","","","",""
"null","null","html-keyboard-response","73","69818","0.0-73.0","","","isi","","","",""
"null","null","html-keyboard-response","74","70321","0.0-74.0","","<div class=""circle set""></div>","set","500","","",""
"1256"," ","html-keyboard-response","75","71577","0.0-75.0","","","go","","1200","1256","56"
"null","null","html-keyboard-response","76","72079","0.0-76.0","","<div class=""circle""></div>","feedback_circle","","","",""
"null","null","html-keyboard-response","77","73082","0.0-77.0","","<div style=""font-size: 48px;"">+</div>
            <p style=""font-size: 16px; text-align: center;"">Trial 12 of 300</p>","iti","","","",""
"null","null","html-keyboard-response","78","73585","0.0-78.0","","<div class=""circle ready""></div>","ready","","","",""
"null","null","html-keyboard-response","79","75186","0.0-79.0","","","isi","","","",""
"null","null","html-keyboard-response","80","75687","0.0-80.0","","<div class=""circle set""></div>","set","500","","",""
"1360"," ","html-keyboard-response","81","77048","0.0-81.0","","","go","","1600","1360","-240"
"null","null","html-keyboard-response","82","77549","0.0-82.0","","<div class=""circle""></div>","feedback_circle","","","",""
"null","null","html-keyboard-response","83","78551","0.0-83.0","","<div style=""font-size: 48px;"">+</div>
            <p style=""font-size: 16px; text-align: center;"">Trial 13 of 300</p>","iti","","","",""
"null","null","html-keyboard-response","84","79053","0.0-84.0","","<div class=""circle ready""></div>","ready","","","",""
"null","null","html-keyboard-response","85","80156","0.0-85.0","","","isi","","","",""
"null","null","html-keyboard-response","86","80659","0.0-86.0","","<div class=""circle set""></div>","set","500","","",""
"1212"," ","html-keyboard-response","87","81872","0.0-87.0","","","go","","1100","1212","112"
"null","null","html-keyboard-response","88","82373","0.0-88.0","","<div class=""circle""></div>","feedback_circle","","","",""
"null","null","html-keyboard-response","89","83376","0.0-89.0","","<div style=""font-size: 48px;"">+</div>
            <p style=""font-size: 16px; text-align: center;"">Trial 14 of 300</p>","iti","","","",""
"null","null","html-keyboard-response","90","83878","0.0-90.0","","<div class=""circle ready""></div>","ready","","","",""
"null","null","html-keyboard-response","91","85380","0.0-91.0","","","isi","","","",""
"null","null","html-keyboard-response","92","85882","0.0-92.0","","<div class=""circle set""></div>","set","500","","",""
"1448"," ","html-keyboard-response","93","87331","0.0-93.0","","","go","","1500","1448","-52"
"null","null","html-keyboard-response","94","87832","0.0-94.0","","<div class=""circle""></div>","feedback_circle","","","",""
"null","null","html-keyboard-response","95","88834","0.0-95.0","","<div style=""font-size: 48px;"">+</div>
            <p style=""font-size: 16px; text-align: center;"">Trial 15 of 300</p>","iti","","","",""
"null","null","html-keyboard-response","96","89336","0.0-96.0","","<div class=""circle ready""></div>","ready","","","",""
"null","null","html-keyboard-response","97","90739","0.0-97.0","","","isi","","","",""
"null","null","html-keyboard-response","98","91242","0.0-98.0","","<div class=""circle set""></div>","set","500","","",""
"1322"," ","html-keyboard-response","99","92565","0.0-99.0","","","go","","1400","1322","-78"
"null","null","html-keyboard-response","100","93066","0.0-100.0","","<div class=""circle""></div>","feedback_circle","","","",""
"null","null","html-keyboard-response","101","94069","0.0-101.0","","<div style=""font-size: 48px;"">+</div>
            <p style=""font-size: 16px; text-align: center;"">Trial 16 of 300</p>","iti","","","",""
"null","null","html-keyboard-response","102","94571","0.0-102.0","","<div class=""circle ready""></div>","ready","","","",""
"null","null","html-keyboard-response","103","95774","0.0-103.0","","","isi","","","",""
"null","null","html-keyboard-response","104","96276","0.0-104.0","","<div class=""circle set""></div>","set","500","","",""
"1209"," ","html-keyboard-response","105","97486","0.0-105.0","","","go","","1200","1209","9"
"null","null","html-keyboard-response","106","97988","0.0-106.0","","<div class=""circle""></div>","feedback_circle","","","",""
"null","null","html-keyboard-response","107","98990","0.0-107.0","","<div style=""font-size: 48px;"">+</div>
            <p style=""font-size: 16px; text-align: center;"">Trial 17 of 300</p>","iti","","","",""
"null","null","html-keyboard-response","108","99492","0.0-108.0","","<div class=""circle ready""></div>","ready","","","",""
"null","null","html-keyboard-response","109","101193","0.0-109.0","","","isi","","","",""
"null","null","html-keyboard-response","110","101696","0.0-110.0","","<div class=""circle set""></div>","set","500","","",""
"1954"," ","html-keyboard-response","111","103651","0.0-111.0","","","go","","1700","1954","254"
"null","null","html-keyboard-response","112","104152","0.0-112.0","","<div class=""circle""></div>","feedback_circle","","","",""
"null","null","html-keyboard-response","113","105155","0.0-113.0","","<div style=""font-size: 48px;"">+</div>
            <p style=""font-size: 16px; text-align: center;"">Trial 18 of 300</p>","iti","","","",""
"null","null","html-keyboard-response","114","105657","0.0-114.0","","<div class=""circle ready""></div>","ready","","","",""
"null","null","html-keyboard-response","115","106759","0.0-115.0","","","isi","","","",""
"null","null","html-keyboard-response","116","107262","0.0-116.0","","<div class=""circle set""></div>","set","500","","",""
"1290"," ","html-keyboard-response","117","108552","0.0-117.0","","","go","","1100","1290","190"
"null","null","html-keyboard-response","118","109054","0.0-118.0","","<div class=""circle""></div>","feedback_circle","","","",""
"null","null","html-keyboard-response","119","110057","0.0-119.0","","<div style=""font-size: 48px;"">+</div>
            <p style=""font-size: 16px; text-align: center;"">Trial 19 of 300</p>","iti","","","",""
"null","null","html-keyboard-response","120","110559","0.0-120.0","","<div class=""circle ready""></div>","ready","","","",""
"null","null","html-keyboard-response","121","112261","0.0-121.0","","","isi","","","",""
"null","null","html-keyboard-response","122","112764","0.0-122.0","","<div class=""circle set""></div>","set","500","","",""
"1757"," ","html-keyboard-response","123","114522","0.0-123.0","","","go","","1700","1757","57"
"null","null","html-keyboard-response","124","115024","0.0-124.0","","<div class=""circle""></div>","feedback_circle","","","",""
"null","null","html-keyboard-response","125","116027","0.0-125.0","","<div style=""font-size: 48px;"">+</div>
            <p style=""font-size: 16px; text-align: center;"">Trial 20 of 300</p>","iti","","","",""
"null","null","html-keyboard-response","126","116529","0.0-126.0","","<div class=""circle ready""></div>","ready","","","",""
"null","null","html-keyboard-response","127","117931","0.0-127.0","","","isi","","","",""
"null","null","html-keyboard-response","128","118434","0.0-128.0","","<div class=""circle set""></div>","set","500","","",""
"1671"," ","html-keyboard-response","129","120106","0.0-129.0","","","go","","1400","1671","271"
"null","null","html-keyboard-response","130","120607","0.0-130.0","","<div class=""circle""></div>","feedback_circle","","","",""
"null","null","html-keyboard-response","131","121610","0.0-131.0","","<div style=""font-size: 48px;"">+</div>
            <p style=""font-size: 16px; text-align: center;"">Trial 21 of 300</p>","iti","","","",""
"null","null","html-keyboard-response","132","122112","0.0-132.0","","<div class=""circle ready""></div>","ready","","","",""
"null","null","html-keyboard-response","133","123814","0.0-133.0","","","isi","","","",""
"null","null","html-keyboard-response","134","124316","0.0-134.0","","<div class=""circle set""></div>","set","500","","",""
"1343"," ","html-keyboard-response","135","125660","0.0-135.0","","","go","","1700","1343","-357"
"null","null","html-keyboard-response","136","126162","0.0-136.0","","<div class=""circle""></div>","feedback_circle","","","",""
"null","null","html-keyboard-response","137","127164","0.0-137.0","","<div style=""font-size: 48px;"">+</div>
            <p style=""font-size: 16px; text-align: center;"">Trial 22 of 300</p>","iti","","","",""
"null","null","html-keyboard-response","138","127666","0.0-138.0","","<div class=""circle ready""></div>","ready","","","",""
"null","null","html-keyboard-response","139","129369","0.0-139.0","","","isi","","","",""
"null","null","html-keyboard-response","140","129871","0.0-140.0","","<div class=""circle set""></div>","set","500","","",""
"1500"," ","html-keyboard-response","141","131372","0.0-141.0","","","go","","1700","1500","-200"
"null","null","html-keyboard-response","142","131874","0.0-142.0","","<div class=""circle""></div>","feedback_circle","","","",""
"null","null","html-keyboard-response","143","132876","0.0-143.0","","<div style=""font-size: 48px;"">+</div>
            <p style=""font-size: 16px; text-align: center;"">Trial 23 of 300</p>","iti","","","",""
"null","null","html-keyboard-response","144","133378","0.0-144.0","","<div class=""circle ready""></div>","ready","","","",""
"null","null","html-keyboard-response","145","134780","0.0-145.0","","","isi","","","",""
"null","null","html-keyboard-response","146","135283","0.0-146.0","","<div class=""circle set""></div>","set","500","","",""
"1404"," ","html-keyboard-response","147","136688","0.0-147.0","","","go","","1400","1404","4"
"null","null","html-keyboard-response","148","137189","0.0-148.0","","<div class=""circle""></div>","feedback_circle","","","",""
"null","null","html-keyboard-response","149","138191","0.0-149.0","","<div style=""font-size: 48px;"">+</div>
            <p style=""font-size: 16px; text-align: center;"">Trial 24 of 300</p>","iti","","","",""
"null","null","html-keyboard-response","150","138694","0.0-150.0","","<div class=""circle ready""></div>","ready","","","",""
"null","null","html-keyboard-response","151","140096","0.0-151.0","","","isi","","","",""
"null","null","html-keyboard-response","152","140599","0.0-152.0","","<div class=""circle set""></div>","set","500","","",""
"1521"," ","html-keyboard-response","153","142121","0.0-153.0","","","go","","1400","1521","121"
"null","null","html-keyboard-response","154","142623","0.0-154.0","","<div class=""circle""></div>","feedback_circle","","","",""
"null","null","html-keyboard-response","155","143625","0.0-155.0","","<div style=""font-size: 48px;"">+</div>
            <p style=""font-size: 16px; text-align: center;"">Trial 25 of 300</p>","iti","","","",""
"null","null","html-keyboard-response","156","144127","0.0-156.0","","<div class=""circle ready""></div>","ready","","","",""
"null","null","html-keyboard-response","157","145330","0.0-157.0","","","isi","","","",""
"null","null","html-keyboard-response","158","145833","0.0-158.0","","<div class=""circle set""></div>","set","500","","",""
"1570"," ","html-keyboard-response","159","147403","0.0-159.0","","","go","","1200","1570","370"
"null","null","html-keyboard-response","160","147905","0.0-160.0","","<div class=""circle""></div>","feedback_circle","","","",""
"null","null","html-keyboard-response","161","148908","0.0-161.0","","<div style=""font-size: 48px;"">+</div>
            <p style=""font-size: 16px; text-align: center;"">Trial 26 of 300</p>","iti","","","",""
"null","null","html-keyboard-response","162","149409","0.0-162.0","","<div class=""circle ready""></div>","ready","","","",""
"null","null","html-keyboard-response","163","151112","0.0-163.0","","","isi","","","",""
"null","null","html-keyboard-response","164","151615","0.0-164.0","","<div class=""circle set""></div>","set","500","","",""
"1753"," ","html-keyboard-response","165","153368","0.0-165.0","","","go","","1700","1753","53"
"null","null","html-keyboard-response","166","153870","0.0-166.0","","<div class=""circle""></div>","feedback_circle","","","",""
"null","null","html-keyboard-response","167","154873","0.0-167.0","","<div style=""font-size: 48px;"">+</div>
            <p style=""font-size: 16px; text-align: center;"">Trial 27 of 300</p>","iti","","","",""
"null","null","html-keyboard-response","168","155374","0.0-168.0","","<div class=""circle ready""></div>","ready","","","",""
"null","null","html-keyboard-response","169","156876","0.0-169.0","","","isi","","","",""
"null","null","html-keyboard-response","170","157379","0.0-170.0","","<div class=""circle set""></div>","set","500","","",""
"1536"," ","html-keyboard-response","171","158916","0.0-171.0","","","go","","1500","1536","36"
"null","null","html-keyboard-response","172","159417","0.0-172.0","","<div class=""circle""></div>","feedback_circle","","","",""
"null","null","html-keyboard-response","173","160419","0.0-173.0","","<div style=""font-size: 48px;"">+</div>
            <p style=""font-size: 16px; text-align: center;"">Trial 28 of 300</p>","iti","","","",""
"null","null","html-keyboard-response","174","160922","0.0-174.0","","<div class=""circle ready""></div>","ready","","","",""
"null","null","html-keyboard-response","175","162224","0.0-175.0","","","isi","","","",""
"null","null","html-keyboard-response","176","162726","0.0-176.0","","<div class=""circle set""></div>","set","500","","",""
"1357"," ","html-keyboard-response","177","164084","0.0-177.0","","","go","","1300","1357","57"
"null","null","html-keyboard-response","178","164586","0.0-178.0","","<div class=""circle""></div>","feedback_circle","","","",""
"null","null","html-keyboard-response","179","165589","0.0-179.0","","<div style=""font-size: 48px;"">+</div>
            <p style=""font-size: 16px; text-align: center;"">Trial 29 of 300</p>","iti","","","",""
"null","null","html-keyboard-response","180","166092","0.0-180.0","","<div class=""circle ready""></div>","ready","","","",""
"null","null","html-keyboard-response","181","167294","0.0-181.0","","","isi","","","",""
"null","null","html-keyboard-response","182","167796","0.0-182.0","","<div class=""circle set""></div>","set","500","","",""
"1418"," ","html-keyboard-response","183","169215","0.0-183.0","","","go","","1200","1418","218"
"null","null","html-keyboard-response","184","169716","0.0-184.0","","<div class=""circle""></div>","feedback_circle","","","",""
"null","null","html-keyboard-response","185","170719","0.0-185.0","","<div style=""font-size: 48px;"">+</div>
            <p style=""font-size: 16px; text-align: center;"">Trial 30 of 300</p>","iti","","","",""
"null","null","html-keyboard-response","186","171221","0.0-186.0","","<div class=""circle ready""></div>","ready","","","",""
"null","null","html-keyboard-response","187","172623","0.0-187.0","","","isi","","","",""
"null","null","html-keyboard-response","188","173125","0.0-188.0","","<div class=""circle set""></div>","set","500","","",""
"1329"," ","html-keyboard-response","189","174455","0.0-189.0","","","go","","1400","1329","-71"
"null","null","html-keyboard-response","190","174956","0.0-190.0","","<div class=""circle""></div>","feedback_circle","","","",""
"null","null","html-keyboard-response","191","175959","0.0-191.0","","<div style=""font-size: 48px;"">+</div>
            <p style=""font-size: 16px; text-align: center;"">Trial 31 of 300</p>","iti","","","",""
"null","null","html-keyboard-response","192","176461","0.0-192.0","","<div class=""circle ready""></div>","ready","","","",""
"null","null","html-keyboard-response","193","177464","0.0-193.0","","","isi","","","",""
"null","null","html-keyboard-response","194","177967","0.0-194.0","","<div class=""circle set""></div>","set","500","","",""
"1160"," ","html-keyboard-response","195","179127","0.0-195.0","","","go","","1000","1160","160"
"null","null","html-keyboard-response","196","179628","0.0-196.0","","<div class=""circle""></div>","feedback_circle","","","",""
"null","null","html-keyboard-response","197","180631","0.0-197.0","","<div style=""font-size: 48px;"">+</div>
            <p style=""font-size: 16px; text-align: center;"">Trial 32 of 300</p>","iti","","","",""
"null","null","html-keyboard-response","198","181132","0.0-198.0","","<div class=""circle ready""></div>","ready","","","",""
"null","null","html-keyboard-response","199","182334","0.0-199.0","","","isi","","","",""
"null","null","html-keyboard-response","200","182837","0.0-200.0","","<div class=""circle set""></div>","set","500","","",""
"1147"," ","html-keyboard-response","201","183985","0.0-201.0","","","go","","1200","1147","-53"
"null","null","html-keyboard-response","202","184486","0.0-202.0","","<div class=""circle""></div>","feedback_circle","","","",""
"null","null","html-keyboard-response","203","185489","0.0-203.0","","<div style=""font-size: 48px;"">+</div>
            <p style=""font-size: 16px; text-align: center;"">Trial 33 of 300</p>","iti","","","",""
"null","null","html-keyboard-response","204","185991","0.0-204.0","","<div class=""circle ready""></div>","ready","","","",""
"null","null","html-keyboard-response","205","187693","0.0-205.0","","","isi","","","",""
"null","null","html-keyboard-response","206","188196","0.0-206.0","","<div class=""circle set""></div>","set","500","","",""
"1661"," ","html-keyboard-response","207","189858","0.0-207.0","","","go","","1700","1661","-39"
"null","null","html-keyboard-response","208","190360","0.0-208.0","","<div class=""circle""></div>","feedback_circle","","","",""
"null","null","html-keyboard-response","209","191363","0.0-209.0","","<div style=""font-size: 48px;"">+</div>
            <p style=""font-size: 16px; text-align: center;"">Trial 34 of 300</p>","iti","","","",""
"null","null","html-keyboard-response","210","191865","0.0-210.0","","<div class=""circle ready""></div>","ready","","","",""
"null","null","html-keyboard-response","211","193167","0.0-211.0","","","isi","","","",""
"null","null","html-keyboard-response","212","193670","0.0-212.0","","<div class=""circle set""></div>","set","500","","",""
"1210"," ","html-keyboard-response","213","194881","0.0-213.0","","","go","","1300","1210","-90"
"null","null","html-keyboard-response","214","195383","0.0-214.0","","<div class=""circle""></div>","feedback_circle","","","",""
"null","null","html-keyboard-response","215","196385","0.0-215.0","","<div style=""font-size: 48px;"">+</div>
            <p style=""font-size: 16px; text-align: center;"">Trial 35 of 300</p>","iti","","","",""
"null","null","html-keyboard-response","216","196886","0.0-216.0","","<div class=""circle ready""></div>","ready","","","",""
"null","null","html-keyboard-response","217","197989","0.0-217.0","","","isi","","","",""
"null","null","html-keyboard-response","218","198491","0.0-218.0","","<div class=""circle set""></div>","set","500","","",""
"1312"," ","html-keyboard-response","219","199804","0.0-219.0","","","go","","1100","1312","212"
"null","null","html-keyboard-response","220","200306","0.0-220.0","","<div class=""circle""></div>","feedback_circle","","","",""
"null","null","html-keyboard-response","221","201308","0.0-221.0","","<div style=""font-size: 48px;"">+</div>
            <p style=""font-size: 16px; text-align: center;"">Trial 36 of 300</p>","iti","","","",""
"null","null","html-keyboard-response","222","201811","0.0-222.0","","<div class=""circle ready""></div>","ready","","","",""
"null","null","html-keyboard-response","223","202913","0.0-223.0","","","isi","","","",""
"null","null","html-keyboard-response","224","203416","0.0-224.0","","<div class=""circle set""></div>","set","500","","",""
"1359"," ","html-keyboard-response","225","204776","0.0-225.0","","","go","","1100","1359","259"
"null","null","html-keyboard-response","226","205278","0.0-226.0","","<div class=""circle""></div>","feedback_circle","","","",""
"null","null","html-keyboard-response","227","206281","0.0-227.0","","<div style=""font-size: 48px;"">+</div>
            <p style=""font-size: 16px; text-align: center;"">Trial 37 of 300</p>","iti","","","",""
"null","null","html-keyboard-response","228","206783","0.0-228.0","","<div class=""circle ready""></div>","ready","","","",""
"null","null","html-keyboard-response","229","207885","0.0-229.0","","","isi","","","",""
"null","null","html-keyboard-response","230","208388","0.0-230.0","","<div class=""circle set""></div>","set","500","","",""
"1028"," ","html-keyboard-response","231","209417","0.0-231.0","","","go","","1100","1028","-72"
"null","null","html-keyboard-response","232","209918","0.0-232.0","","<div class=""circle""></div>","feedback_circle","","","",""
"null","null","html-keyboard-response","233","210921","0.0-233.0","","<div style=""font-size: 48px;"">+</div>
            <p style=""font-size: 16px; text-align: center;"">Trial 38 of 300</p>","iti","","","",""
"null","null","html-keyboard-response","234","211423","0.0-234.0","","<div class=""circle ready""></div>","ready","","","",""
"null","null","html-keyboard-response","235","212725","0.0-235.0","","","isi","","","",""
"null","null","html-keyboard-response","236","213227","0.0-236.0","","<div class=""circle set""></div>","set","500","","",""
"1417"," ","html-keyboard-response","237","214645","0.0-237.0","","","go","","1300","1417","117"
"null","null","html-keyboard-response","238","215146","0.0-238.0","","<div class=""circle""></div>","feedback_circle","","","",""
"null","null","html-keyboard-response","239","216149","0.0-239.0","","<div style=""font-size: 48px;"">+</div>
            <p style=""font-size: 16px; text-align: center;"">Trial 39 of 300</p>","iti","","","",""
"null","null","html-keyboard-response","240","216652","0.0-240.0","","<div class=""circle ready""></div>","ready","","","",""
"null","null","html-keyboard-response","241","217655","0.0-241.0","","","isi","","","",""
"null","null","html-keyboard-response","242","218157","0.0-242.0","","<div class=""circle set""></div>","set","500","","",""
"1132"," ","html-keyboard-response","243","219289","0.0-243.0","","","go","","1000","1132","132"
"null","null","html-keyboard-response","244","219790","0.0-244.0","","<div class=""circle""></div>","feedback_circle","","","",""
"null","null","html-keyboard-response","245","220793","0.0-245.0","","<div style=""font-size: 48px;"">+</div>
            <p style=""font-size: 16px; text-align: center;"">Trial 40 of 300</p>","iti","","","",""
"null","null","html-keyboard-response","246","221294","0.0-246.0","","<div class=""circle ready""></div>","ready","","","",""
"null","null","html-keyboard-response","247","222496","0.0-247.0","","","isi","","","",""
"null","null","html-keyboard-response","248","222998","0.0-248.0","","<div class=""circle set""></div>","set","500","","",""
"1253"," ","html-keyboard-response","249","224252","0.0-249.0","","","go","","1200","1253","53"
"null","null","html-keyboard-response","250","224754","0.0-250.0","","<div class=""circle""></div>","feedback_circle","","","",""
"null","null","html-keyboard-response","251","225756","0.0-251.0","","<div style=""font-size: 48px;"">+</div>
            <p style=""font-size: 16px; text-align: center;"">Trial 41 of 300</p>","iti","","","",""
"null","null","html-keyboard-response","252","226258","0.0-252.0","","<div class=""circle ready""></div>","ready","","","",""
"null","null","html-keyboard-response","253","227961","0.0-253.0","","","isi","","","",""
"null","null","html-keyboard-response","254","228463","0.0-254.0","","<div class=""circle set""></div>","set","500","","",""
"1801"," ","html-keyboard-response","255","230265","0.0-255.0","","","go","","1700","1801","101"
"null","null","html-keyboard-response","256","230767","0.0-256.0","","<div class=""circle""></div>","feedback_circle","","","",""
"null","null","html-keyboard-response","257","231770","0.0-257.0","","<div style=""font-size: 48px;"">+</div>
            <p style=""font-size: 16px; text-align: center;"">Trial 42 of 300</p>","iti","","","",""
"null","null","html-keyboard-response","258","232271","0.0-258.0","","<div class=""circle ready""></div>","ready","","","",""
"null","null","html-keyboard-response","259","233272","0.0-259.0","","","isi","","","",""
"null","null","html-keyboard-response","260","233775","0.0-260.0","","<div class=""circle set""></div>","set","500","","",""
"1298"," ","html-keyboard-response","261","235074","0.0-261.0","","","go","","1000","1298","298"
"null","null","html-keyboard-response","262","235575","0.0-262.0","","<div class=""circle""></div>","feedback_circle","","","",""
"null","null","html-keyboard-response","263","236578","0.0-263.0","","<div style=""font-size: 48px;"">+</div>
            <p style=""font-size: 16px; text-align: center;"">Trial 43 of 300</p>","iti","","","",""
"null","null","html-keyboard-response","264","237080","0.0-264.0","","<div class=""circle ready""></div>","ready","","","",""
"null","null","html-keyboard-response","265","238382","0.0-265.0","","","isi","","","",""
"null","null","html-keyboard-response","266","238885","0.0-266.0","","<div class=""circle set""></div>","set","500","","",""
"1271"," ","html-keyboard-response","267","240157","0.0-267.0","","","go","","1300","1271","-29"
"null","null","html-keyboard-response","268","240658","0.0-268.0","","<div class=""circle""></div>","feedback_circle","","","",""
"null","null","html-keyboard-response","269","241660","0.0-269.0","","<div style=""font-size: 48px;"">+</div>
            <p style=""font-size: 16px; text-align: center;"">Trial 44 of 300</p>","iti","","","",""
"null","null","html-keyboard-response","270","242163","0.0-270.0","","<div class=""circle ready""></div>","ready","","","",""
"null","null","html-keyboard-response","271","243465","0.0-271.0","","","isi","","","",""
"null","null","html-keyboard-response","272","243968","0.0-272.0","","<div class=""circle set""></div>","set","500","","",""
"1309"," ","html-keyboard-response","273","245278","0.0-273.0","","","go","","1300","1309","9"
"null","null","html-keyboard-response","274","245779","0.0-274.0","","<div class=""circle""></div>","feedback_circle","","","",""
"null","null","html-keyboard-response","275","246782","0.0-275.0","","<div style=""font-size: 48px;"">+</div>
            <p style=""font-size: 16px; text-align: center;"">Trial 45 of 300</p>","iti","","","",""
"null","null","html-keyboard-response","276","247285","0.0-276.0","","<div class=""circle ready""></div>","ready","","","",""
"null","null","html-keyboard-response","277","248387","0.0-277.0","","","isi","","","",""
"null","null","html-keyboard-response","278","248890","0.0-278.0","","<div class=""circle set""></div>","set","500","","",""
"1213"," ","html-keyboard-response","279","250103","0.0-279.0","","","go","","1100","1213","113"
"null","null","html-keyboard-response","280","250604","0.0-280.0","","<div class=""circle""></div>","feedback_circle","","","",""
"null","null","html-keyboard-response","281","251606","0.0-281.0","","<div style=""font-size: 48px;"">+</div>
            <p style=""font-size: 16px; text-align: center;"">Trial 46 of 300</p>","iti","","","",""
"null","null","html-keyboard-response","282","252109","0.0-282.0","","<div class=""circle ready""></div>","ready","","","",""
"null","null","html-keyboard-response","283","253511","0.0-283.0","","","isi","","","",""
"null","null","html-keyboard-response","284","254013","0.0-284.0","","<div class=""circle set""></div>","set","500","","",""
"1591"," ","html-keyboard-response","285","255605","0.0-285.0","","","go","","1400","1591","191"
"null","null","html-keyboard-response","286","256106","0.0-286.0","","<div class=""circle""></div>","feedback_circle","","","",""
"null","null","html-keyboard-response","287","257109","0.0-287.0","","<div style=""font-size: 48px;"">+</div>
            <p style=""font-size: 16px; text-align: center;"">Trial 47 of 300</p>","iti","","","",""
"null","null","html-keyboard-response","288","257611","0.0-288.0","","<div class=""circle ready""></div>","ready","","","",""
"null","null","html-keyboard-response","289","258813","0.0-289.0","","","isi","","","",""
"null","null","html-keyboard-response","290","259315","0.0-290.0","","<div class=""circle set""></div>","set","500","","",""
"1321"," ","html-keyboard-response","291","260637","0.0-291.0","","","go","","1200","1321","121"
"null","null","html-keyboard-response","292","261138","0.0-292.0","","<div class=""circle""></div>","feedback_circle","","","",""
"null","null","html-keyboard-response","293","262141","0.0-293.0","","<div style=""font-size: 48px;"">+</div>
            <p style=""font-size: 16px; text-align: center;"">Trial 48 of 300</p>","iti","","","",""
"null","null","html-keyboard-response","294","262642","0.0-294.0","","<div class=""circle ready""></div>","ready","","","",""
"null","null","html-keyboard-response","295","263845","0.0-295.0","","","isi","","","",""
"null","null","html-keyboard-response","296","264347","0.0-296.0","","<div class=""circle set""></div>","set","500","","",""
"1238"," ","html-keyboard-response","297","265585","0.0-297.0","","","go","","1200","1238","38"
"null","null","html-keyboard-response","298","266087","0.0-298.0","","<div class=""circle""></div>","feedback_circle","","","",""
"null","null","html-keyboard-response","299","267090","0.0-299.0","","<div style=""font-size: 48px;"">+</div>
            <p style=""font-size: 16px; text-align: center;"">Trial 49 of 300</p>","iti","","","",""
"null","null","html-keyboard-response","300","267592","0.0-300.0","","<div class=""circle ready""></div>","ready","","","",""
"null","null","html-keyboard-response","301","269194","0.0-301.0","","","isi","","","",""
"null","null","html-keyboard-response","302","269697","0.0-302.0","","<div class=""circle set""></div>","set","500","","",""
"1498"," ","html-keyboard-response","303","271195","0.0-303.0","","","go","","1600","1498","-102"
"null","null","html-keyboard-response","304","271697","0.0-304.0","","<div class=""circle""></div>","feedback_circle","","","",""
"null","null","html-keyboard-response","305","272700","0.0-305.0","","<div style=""font-size: 48px;"">+</div>
            <p style=""font-size: 16px; text-align: center;"">Trial 50 of 300</p>","iti","","","",""
"null","null","html-keyboard-response","306","273202","0.0-306.0","","<div class=""circle ready""></div>","ready","","","",""
"null","null","html-keyboard-response","307","274504","0.0-307.0","","","isi","","","",""
"null","null","html-keyboard-response","308","275007","0.0-308.0","","<div class=""circle set""></div>","set","500","","",""
"1279"," ","html-keyboard-response","309","276286","0.0-309.0","","","go","","1300","1279","-21"
"null","null","html-keyboard-response","310","276787","0.0-310.0","","<div class=""circle""></div>","feedback_circle","","","",""
"null","null","html-keyboard-response","311","277790","0.0-311.0","","<div style=""font-size: 48px;"">+</div>
            <p style=""font-size: 16px; text-align: center;"">Trial 51 of 300</p>","iti","","","",""
"null","null","html-keyboard-response","312","278292","0.0-312.0","","<div class=""circle ready""></div>","ready","","","",""
"null","null","html-keyboard-response","313","279695","0.0-313.0","","","isi","","","",""
"null","null","html-keyboard-response","314","280197","0.0-314.0","","<div class=""circle set""></div>","set","500","","",""
"1360"," ","html-keyboard-response","315","281557","0.0-315.0","","","go","","1400","1360","-40"
"null","null","html-keyboard-response","316","282059","0.0-316.0","","<div class=""circle""></div>","feedback_circle","","","",""
"null","null","html-keyboard-response","317","283062","0.0-317.0","","<div style=""font-size: 48px;"">+</div>
            <p style=""font-size: 16px; text-align: center;"">Trial 52 of 300</p>","iti","","","",""
"null","null","html-keyboard-response","318","283564","0.0-318.0","","<div class=""circle ready""></div>","ready","","","",""
"null","null","html-keyboard-response","319","284567","0.0-319.0","","","isi","","","",""
"null","null","html-keyboard-response","320","285069","0.0-320.0","","<div class=""circle set""></div>","set","500","","",""
"1248"," ","html-keyboard-response","321","286318","0.0-321.0","","","go","","1000","1248","248"
"null","null","html-keyboard-response","322","286819","0.0-322.0","","<div class=""circle""></div>","feedback_circle","","","",""
"null","null","html-keyboard-response","323","287823","0.0-323.0","","<div style=""font-size: 48px;"">+</div>
            <p style=""font-size: 16px; text-align: center;"">Trial 53 of 300</p>","iti","","","",""
"null","null","html-keyboard-response","324","288324","0.0-324.0","","<div class=""circle ready""></div>","ready","","","",""
"null","null","html-keyboard-response","325","289527","0.0-325.0","","","isi","","","",""
"null","null","html-keyboard-response","326","290029","0.0-326.0","","<div class=""circle set""></div>","set","500","","",""
"1290"," ","html-keyboard-response","327","291320","0.0-327.0","","","go","","1200","1290","90"
"null","null","html-keyboard-response","328","291821","0.0-328.0","","<div class=""circle""></div>","feedback_circle","","","",""
"null","null","html-keyboard-response","329","292824","0.0-329.0","","<div style=""font-size: 48px;"">+</div>
            <p style=""font-size: 16px; text-align: center;"">Trial 54 of 300</p>","iti","","","",""
"null","null","html-keyboard-response","330","293326","0.0-330.0","","<div class=""circle ready""></div>","ready","","","",""
"null","null","html-keyboard-response","331","294527","0.0-331.0","","","isi","","","",""
"null","null","html-keyboard-response","332","295030","0.0-332.0","","<div class=""circle set""></div>","set","500","","",""
"1265"," ","html-keyboard-response","333","296295","0.0-333.0","","","go","","1200","1265","65"
"null","null","html-keyboard-response","334","296797","0.0-334.0","","<div class=""circle""></div>","feedback_circle","","","",""
"null","null","html-keyboard-response","335","297800","0.0-335.0","","<div style=""font-size: 48px;"">+</div>
            <p style=""font-size: 16px; text-align: center;"">Trial 55 of 300</p>","iti","","","",""
"null","null","html-keyboard-response","336","298302","0.0-336.0","","<div class=""circle ready""></div>","ready","","","",""
"null","null","html-keyboard-response","337","299705","0.0-337.0","","","isi","","","",""
"null","null","html-keyboard-response","338","300207","0.0-338.0","","<div class=""circle set""></div>","set","500","","",""
"1342"," ","html-keyboard-response","339","301550","0.0-339.0","","","go","","1400","1342","-58"
"null","null","html-keyboard-response","340","302051","0.0-340.0","","<div class=""circle""></div>","feedback_circle","","","",""
"null","null","html-keyboard-response","341","303053","0.0-341.0","","<div style=""font-size: 48px;"">+</div>
            <p style=""font-size: 16px; text-align: center;"">Trial 56 of 300</p>","iti","","","",""
"null","null","html-keyboard-response","342","303555","0.0-342.0","","<div class=""circle ready""></div>","ready","","","",""
"null","null","html-keyboard-response","343","305257","0.0-343.0","","","isi","","","",""
"null","null","html-keyboard-response","344","305759","0.0-344.0","","<div class=""circle set""></div>","set","500","","",""
"1585"," ","html-keyboard-response","345","307345","0.0-345.0","","","go","","1700","1585","-115"
"null","null","html-keyboard-response","346","307847","0.0-346.0","","<div class=""circle""></div>","feedback_circle","","","",""
"null","null","html-keyboard-response","347","308850","0.0-347.0","","<div style=""font-size: 48px;"">+</div>
            <p style=""font-size: 16px; text-align: center;"">Trial 57 of 300</p>","iti","","","",""
"null","null","html-keyboard-response","348","309352","0.0-348.0","","<div class=""circle ready""></div>","ready","","","",""
"null","null","html-keyboard-response","349","310555","0.0-349.0","","","isi","","","",""
"null","null","html-keyboard-response","350","311057","0.0-350.0","","<div class=""circle set""></div>","set","500","","",""
"1382"," ","html-keyboard-response","351","312440","0.0-351.0","","","go","","1200","1382","182"
"null","null","html-keyboard-response","352","312941","0.0-352.0","","<div class=""circle""></div>","feedback_circle","","","",""
"null","null","html-keyboard-response","353","313944","0.0-353.0","","<div style=""font-size: 48px;"">+</div>
            <p style=""font-size: 16px; text-align: center;"">Trial 58 of 300</p>","iti","","","",""
"null","null","html-keyboard-response","354","314446","0.0-354.0","","<div class=""circle ready""></div>","ready","","","",""
"null","null","html-keyboard-response","355","315949","0.0-355.0","","","isi","","","",""
"null","null","html-keyboard-response","356","316451","0.0-356.0","","<div class=""circle set""></div>","set","500","","",""
"1465"," ","html-keyboard-response","357","317917","0.0-357.0","","","go","","1500","1465","-35"
"null","null","html-keyboard-response","358","318418","0.0-358.0","","<div class=""circle""></div>","feedback_circle","","","",""
"null","null","html-keyboard-response","359","319421","0.0-359.0","","<div style=""font-size: 48px;"">+</div>
            <p style=""font-size: 16px; text-align: center;"">Trial 59 of 300</p>","iti","","","",""
"null","null","html-keyboard-response","360","319924","0.0-360.0","","<div class=""circle ready""></div>","ready","","","",""
"null","null","html-keyboard-response","361","320926","0.0-361.0","","","isi","","","",""
"null","null","html-keyboard-response","362","321429","0.0-362.0","","<div class=""circle set""></div>","set","500","","",""
"1320"," ","html-keyboard-response","363","322750","0.0-363.0","","","go","","1000","1320","320"
"null","null","html-keyboard-response","364","323251","0.0-364.0","","<div class=""circle""></div>","feedback_circle","","","",""
"null","null","html-keyboard-response","365","324254","0.0-365.0","","<div style=""font-size: 48px;"">+</div>
            <p style=""font-size: 16px; text-align: center;"">Trial 60 of 300</p>","iti","","","",""
"null","null","html-keyboard-response","366","324755","0.0-366.0","","<div class=""circle ready""></div>","ready","","","",""
"null","null","html-keyboard-response","367","325957","0.0-367.0","","","isi","","","",""
"null","null","html-keyboard-response","368","326460","0.0-368.0","","<div class=""circle set""></div>","set","500","","",""
"1326"," ","html-keyboard-response","369","327787","0.0-369.0","","","go","","1200","1326","126"
"null","null","html-keyboard-response","370","328289","0.0-370.0","","<div class=""circle""></div>","feedback_circle","","","",""
"null","null","html-keyboard-response","371","329291","0.0-371.0","","<div style=""font-size: 48px;"">+</div>
            <p style=""font-size: 16px; text-align: center;"">Trial 61 of 300</p>","iti","","","",""
"null","null","html-keyboard-response","372","329794","0.0-372.0","","<div class=""circle ready""></div>","ready","","","",""
"null","null","html-keyboard-response","373","331196","0.0-373.0","","","isi","","","",""
"null","null","html-keyboard-response","374","331698","0.0-374.0","","<div class=""circle set""></div>","set","500","","",""
"1414"," ","html-keyboard-response","375","333113","0.0-375.0","","","go","","1400","1414","14"
"null","null","html-keyboard-response","376","333615","0.0-376.0","","<div class=""circle""></div>","feedback_circle","","","",""
"null","null","html-keyboard-response","377","334617","0.0-377.0","","<div style=""font-size: 48px;"">+</div>
            <p style=""font-size: 16px; text-align: center;"">Trial 62 of 300</p>","iti","","","",""
"null","null","html-keyboard-response","378","335120","0.0-378.0","","<div class=""circle ready""></div>","ready","","","",""
"null","null","html-keyboard-response","379","336622","0.0-379.0","","","isi","","","",""
"null","null","html-keyboard-response","380","337125","0.0-380.0","","<div class=""circle set""></div>","set","500","","",""
"1563"," ","html-keyboard-response","381","338688","0.0-381.0","","","go","","1500","1563","63"
"null","null","html-keyboard-response","382","339190","0.0-382.0","","<div class=""circle""></div>","feedback_circle","","","",""
"null","null","html-keyboard-response","383","340193","0.0-383.0","","<div style=""font-size: 48px;"">+</div>
            <p style=""font-size: 16px; text-align: center;"">Trial 63 of 300</p>","iti","","","",""
"null","null","html-keyboard-response","384","340694","0.0-384.0","","<div class=""circle ready""></div>","ready","","","",""
"null","null","html-keyboard-response","385","341896","0.0-385.0","","","isi","","","",""
"null","null","html-keyboard-response","386","342398","0.0-386.0","","<div class=""circle set""></div>","set","500","","",""
"1567"," ","html-keyboard-response","387","343965","0.0-387.0","","","go","","1200","1567","367"
"null","null","html-keyboard-response","388","344467","0.0-388.0","","<div class=""circle""></div>","feedback_circle","","","",""
"null","null","html-keyboard-response","389","345469","0.0-389.0","","<div style=""font-size: 48px;"">+</div>
            <p style=""font-size: 16px; text-align: center;"">Trial 64 of 300</p>","iti","","","",""
"null","null","html-keyboard-response","390","345971","0.0-390.0","","<div class=""circle ready""></div>","ready","","","",""
"null","null","html-keyboard-response","391","346972","0.0-391.0","","","isi","","","",""
"null","null","html-keyboard-response","392","347475","0.0-392.0","","<div class=""circle set""></div>","set","500","","",""
"1102"," ","html-keyboard-response","393","348577","0.0-393.0","","","go","","1000","1102","102"
"null","null","html-keyboard-response","394","349078","0.0-394.0","","<div class=""circle""></div>","feedback_circle","","","",""
"null","null","html-keyboard-response","395","350082","0.0-395.0","","<div style=""font-size: 48px;"">+</div>
            <p style=""font-size: 16px; text-align: center;"">Trial 65 of 300</p>","iti","","","",""
"null","null","html-keyboard-response","396","350584","0.0-396.0","","<div class=""circle ready""></div>","ready","","","",""
"null","null","html-keyboard-response","397","351687","0.0-397.0","","","isi","","","",""
"null","null","html-keyboard-response","398","352189","0.0-398.0","","<div class=""circle set""></div>","set","500","","",""
"1303"," ","html-keyboard-response","399","353493","0.0-399.0","","","go","","1100","1303","203"
"null","null","html-keyboard-response","400","353995","0.0-400.0","","<div class=""circle""></div>","feedback_circle","","","",""
"null","null","html-keyboard-response","401","354997","0.0-401.0","","<div style=""font-size: 48px;"">+</div>
            <p style=""font-size: 16px; text-align: center;"">Trial 66 of 300</p>","iti","","","",""
"null","null","html-keyboard-response","402","355499","0.0-402.0","","<div class=""circle ready""></div>","ready","","","",""
"null","null","html-keyboard-response","403","356801","0.0-403.0","","","isi","","","",""
"null","null","html-keyboard-response","404","357303","0.0-404.0","","<div class=""circle set""></div>","set","500","","",""
"1337"," ","html-keyboard-response","405","358641","0.0-405.0","","","go","","1300","1337","37"
"null","null","html-keyboard-response","406","359142","0.0-406.0","","<div class=""circle""></div>","feedback_circle","","","",""
"null","null","html-keyboard-response","407","360145","0.0-407.0","","<div style=""font-size: 48px;"">+</div>
            <p style=""font-size: 16px; text-align: center;"">Trial 67 of 300</p>","iti","","","",""
"null","null","html-keyboard-response","408","360647","0.0-408.0","","<div class=""circle ready""></div>","ready","","","",""
"null","null","html-keyboard-response","409","362149","0.0-409.0","","","isi","","","",""
"null","null","html-keyboard-response","410","362652","0.0-410.0","","<div class=""circle set""></div>","set","500","","",""
"1256"," ","html-keyboard-response","411","363909","0.0-411.0","","","go","","1500","1256","-244"
"null","null","html-keyboard-response","412","364411","0.0-412.0","","<div class=""circle""></div>","feedback_circle","","","",""
"null","null","html-keyboard-response","413","365413","0.0-413.0","","<div style=""font-size: 48px;"">+</div>
            <p style=""font-size: 16px; text-align: center;"">Trial 68 of 300</p>","iti","","","",""
"null","null","html-keyboard-response","414","365916","0.0-414.0","","<div class=""circle ready""></div>","ready","","","",""
"null","null","html-keyboard-response","415","367018","0.0-415.0","","","isi","","","",""
"null","null","html-keyboard-response","416","367520","0.0-416.0","","<div class=""circle set""></div>","set","500","","",""
"1394"," ","html-keyboard-response","417","368915","0.0-417.0","","","go","","1100","1394","294"
"null","null","html-keyboard-response","418","369417","0.0-418.0","","<div class=""circle""></div>","feedback_circle","","","",""
"null","null","html-keyboard-response","419","370419","0.0-419.0","","<div style=""font-size: 48px;"">+</div>
            <p style=""font-size: 16px; text-align: center;"">Trial 69 of 300</p>","iti","","","",""
"null","null","html-keyboard-response","420","370920","0.0-420.0","","<div class=""circle ready""></div>","ready","","","",""
"null","null","html-keyboard-response","421","371923","0.0-421.0","","","isi","","","",""
"null","null","html-keyboard-response","422","372425","0.0-422.0","","<div class=""circle set""></div>","set","500","","",""
"932"," ","html-keyboard-response","423","373358","0.0-423.0","","","go","","1000","932","-68"
"null","null","html-keyboard-response","424","373860","0.0-424.0","","<div class=""circle""></div>","feedback_circle","","","",""
"null","null","html-keyboard-response","425","374862","0.0-425.0","","<div style=""font-size: 48px;"">+</div>
            <p style=""font-size: 16px; text-align: center;"">Trial 70 of 300</p>","iti","","","",""
"null","null","html-keyboard-response","426","375365","0.0-426.0","","<div class=""circle ready""></div>","ready","","","",""
"null","null","html-keyboard-response","427","376368","0.0-427.0","","","isi","","","",""
"null","null","html-keyboard-response","428","376870","0.0-428.0","","<div class=""circle set""></div>","set","500","","",""
"968"," ","html-keyboard-response","429","377839","0.0-429.0","","","go","","1000","968","-32"
"null","null","html-keyboard-response","430","378340","0.0-430.0","","<div class=""circle""></div>","feedback_circle","","","",""
"null","null","html-keyboard-response","431","379343","0.0-431.0","","<div style=""font-size: 48px;"">+</div>
            <p style=""font-size: 16px; text-align: center;"">Trial 71 of 300</p>","iti","","","",""
"null","null","html-keyboard-response","432","379846","0.0-432.0","","<div class=""circle ready""></div>","ready","","","",""
"null","null","html-keyboard-response","433","381248","0.0-433.0","","","isi","","","",""
"null","null","html-keyboard-response","434","381751","0.0-434.0","","<div class=""circle set""></div>","set","500","","",""
"1274"," ","html-keyboard-response","435","383025","0.0-435.0","","","go","","1400","1274","-126"
"null","null","html-keyboard-response","436","383527","0.0-436.0","","<div class=""circle""></div>","feedback_circle","","","",""
"null","null","html-keyboard-response","437","384529","0.0-437.0","","<div style=""font-size: 48px;"">+</div>
            <p style=""font-size: 16px; text-align: center;"">Trial 72 of 300</p>","iti","","","",""
"null","null","html-keyboard-response","438","385032","0.0-438.0","","<div class=""circle ready""></div>","ready","","","",""
"null","null","html-keyboard-response","439","386635","0.0-439.0","","","isi","","","",""
"null","null","html-keyboard-response","440","387137","0.0-440.0","","<div class=""circle set""></div>","set","500","","",""
"1582"," ","html-keyboard-response","441","388720","0.0-441.0","","","go","","1600","1582","-18"
"null","null","html-keyboard-response","442","389221","0.0-442.0","","<div class=""circle""></div>","feedback_circle","","","",""
"null","null","html-keyboard-response","443","390224","0.0-443.0","","<div style=""font-size: 48px;"">+</div>
            <p style=""font-size: 16px; text-align: center;"">Trial 73 of 300</p>","iti","","","",""
"null","null","html-keyboard-response","444","390726","0.0-444.0","","<div class=""circle ready""></div>","ready","","","",""
"null","null","html-keyboard-response","445","391828","0.0-445.0","","","isi","","","",""
"null","null","html-keyboard-response","446","392331","0.0-446.0","","<div class=""circle set""></div>","set","500","","",""
"1525"," ","html-keyboard-response","447","393857","0.0-447.0","","","go","","1100","1525","425"
"null","null","html-keyboard-response","448","394359","0.0-448.0","","<div class=""circle""></div>","feedback_circle","","","",""
"null","null","html-keyboard-response","449","395362","0.0-449.0","","<div style=""font-size: 48px;"">+</div>
            <p style=""font-size: 16px; text-align: center;"">Trial 74 of 300</p>","iti","","","",""
"null","null","html-keyboard-response","450","395863","0.0-450.0","","<div class=""circle ready""></div>","ready","","","",""
"null","null","html-keyboard-response","451","397165","0.0-451.0","","","isi","","","",""
"null","null","html-keyboard-response","452","397668","0.0-452.0","","<div class=""circle set""></div>","set","500","","",""
"1665"," ","html-keyboard-response","453","399333","0.0-453.0","","","go","","1300","1665","365"
"null","null","html-keyboard-response","454","399835","0.0-454.0","","<div class=""circle""></div>","feedback_circle","","","",""
"null","null","html-keyboard-response","455","400838","0.0-455.0","","<div style=""font-size: 48px;"">+</div>
            <p style=""font-size: 16px; text-align: center;"">Trial 75 of 300</p>","iti","","","",""
"null","null","html-keyboard-response","456","401340","0.0-456.0","","<div class=""circle ready""></div>","ready","","","",""
"null","null","html-keyboard-response","457","402342","0.0-457.0","","","isi","","","",""
"null","null","html-keyboard-response","458","402845","0.0-458.0","","<div class=""circle set""></div>","set","500","","",""
"657"," ","html-keyboard-response","459","403502","0.0-459.0","","","go","","1000","657","-343"
"null","null","html-keyboard-response","460","404004","0.0-460.0","","<div class=""circle""></div>","feedback_circle","","","",""
"null","null","html-keyboard-response","461","405007","0.0-461.0","","<div style=""font-size: 48px;"">+</div>
            <p style=""font-size: 16px; text-align: center;"">Trial 76 of 300</p>","iti","","","",""
"null","null","html-keyboard-response","462","405509","0.0-462.0","","<div class=""circle ready""></div>","ready","","","",""
"null","null","html-keyboard-response","463","407011","0.0-463.0","","","isi","","","",""
"null","null","html-keyboard-response","464","407514","0.0-464.0","","<div class=""circle set""></div>","set","500","","",""
"1590"," ","html-keyboard-response","465","409105","0.0-465.0","","","go","","1500","1590","90"
"null","null","html-keyboard-response","466","409606","0.0-466.0","","<div class=""circle""></div>","feedback_circle","","","",""
"null","null","html-keyboard-response","467","410608","0.0-467.0","","<div style=""font-size: 48px;"">+</div>
            <p style=""font-size: 16px; text-align: center;"">Trial 77 of 300</p>","iti","","","",""
"null","null","html-keyboard-response","468","411110","0.0-468.0","","<div class=""circle ready""></div>","ready","","","",""
"null","null","html-keyboard-response","469","412713","0.0-469.0","","","isi","","","",""
"null","null","html-keyboard-response","470","413216","0.0-470.0","","<div class=""circle set""></div>","set","500","","",""
"1640"," ","html-keyboard-response","471","414857","0.0-471.0","","","go","","1600","1640","40"
"null","null","html-keyboard-response","472","415358","0.0-472.0","","<div class=""circle""></div>","feedback_circle","","","",""
"null","null","html-keyboard-response","473","416361","0.0-473.0","","<div style=""font-size: 48px;"">+</div>
            <p style=""font-size: 16px; text-align: center;"">Trial 78 of 300</p>","iti","","","",""
"null","null","html-keyboard-response","474","416863","0.0-474.0","","<div class=""circle ready""></div>","ready","","","",""
"null","null","html-keyboard-response","475","418266","0.0-475.0","","","isi","","","",""
"null","null","html-keyboard-response","476","418768","0.0-476.0","","<div class=""circle set""></div>","set","500","","",""
"1463"," ","html-keyboard-response","477","420232","0.0-477.0","","","go","","1400","1463","63"
"null","null","html-keyboard-response","478","420733","0.0-478.0","","<div class=""circle""></div>","feedback_circle","","","",""
"null","null","html-keyboard-response","479","421736","0.0-479.0","","<div style=""font-size: 48px;"">+</div>
            <p style=""font-size: 16px; text-align: center;"">Trial 79 of 300</p>","iti","","","",""
"null","null","html-keyboard-response","480","422239","0.0-480.0","","<div class=""circle ready""></div>","ready","","","",""
"null","null","html-keyboard-response","481","423941","0.0-481.0","","","isi","","","",""
"null","null","html-keyboard-response","482","424443","0.0-482.0","","<div class=""circle set""></div>","set","500","","",""
"1562"," ","html-keyboard-response","483","426006","0.0-483.0","","","go","","1700","1562","-138"
"null","null","html-keyboard-response","484","426508","0.0-484.0","","<div class=""circle""></div>","feedback_circle","","","",""
"null","null","html-keyboard-response","485","427510","0.0-485.0","","<div style=""font-size: 48px;"">+</div>
            <p style=""font-size: 16px; text-align: center;"">Trial 80 of 300</p>","iti","","","",""
"null","null","html-keyboard-response","486","428012","0.0-486.0","","<div class=""circle ready""></div>","ready","","","",""
"null","null","html-keyboard-response","487","429714","0.0-487.0","","","isi","","","",""
"null","null","html-keyboard-response","488","430217","0.0-488.0","","<div class=""circle set""></div>","set","500","","",""
"1551"," ","html-keyboard-response","489","431768","0.0-489.0","","","go","","1700","1551","-149"
"null","null","html-keyboard-response","490","432270","0.0-490.0","","<div class=""circle""></div>","feedback_circle","","","",""
"null","null","html-keyboard-response","491","433272","0.0-491.0","","<div style=""font-size: 48px;"">+</div>
            <p style=""font-size: 16px; text-align: center;"">Trial 81 of 300</p>","iti","","","",""
"null","null","html-keyboard-response","492","433774","0.0-492.0","","<div class=""circle ready""></div>","ready","","","",""
"null","null","html-keyboard-response","493","434976","0.0-493.0","","","isi","","","",""
"null","null","html-keyboard-response","494","435478","0.0-494.0","","<div class=""circle set""></div>","set","500","","",""
"1387"," ","html-keyboard-response","495","436865","0.0-495.0","","","go","","1200","1387","187"
"null","null","html-keyboard-response","496","437366","0.0-496.0","","<div class=""circle""></div>","feedback_circle","","","",""
"null","null","html-keyboard-response","497","438368","0.0-497.0","","<div style=""font-size: 48px;"">+</div>
            <p style=""font-size: 16px; text-align: center;"">Trial 82 of 300</p>","iti","","","",""
"null","null","html-keyboard-response","498","438870","0.0-498.0","","<div class=""circle ready""></div>","ready","","","",""
"null","null","html-keyboard-response","499","440472","0.0-499.0","","","isi","","","",""
"null","null","html-keyboard-response","500","440974","0.0-500.0","","<div class=""circle set""></div>","set","500","","",""
"1401"," ","html-keyboard-response","501","442376","0.0-501.0","","","go","","1600","1401","-199"
"null","null","html-keyboard-response","502","442878","0.0-502.0","","<div class=""circle""></div>","feedback_circle","","","",""
"null","null","html-keyboard-response","503","443881","0.0-503.0","","<div style=""font-size: 48px;"">+</div>
            <p style=""font-size: 16px; text-align: center;"">Trial 83 of 300</p>","iti","","","",""
"null","null","html-keyboard-response","504","444383","0.0-504.0","","<div class=""circle ready""></div>","ready","","","",""
"null","null","html-keyboard-response","505","445986","0.0-505.0","","","isi","","","",""
"null","null","html-keyboard-response","506","446488","0.0-506.0","","<div class=""circle set""></div>","set","500","","",""
"1509"," ","html-keyboard-response","507","447998","0.0-507.0","","","go","","1600","1509","-91"
"null","null","html-keyboard-response","508","448499","0.0-508.0","","<div class=""circle""></div>","feedback_circle","","","",""
"null","null","html-keyboard-response","509","449502","0.0-509.0","","<div style=""font-size: 48px;"">+</div>
            <p style=""font-size: 16px; text-align: center;"">Trial 84 of 300</p>","iti","","","",""
"null","null","html-keyboard-response","510","450004","0.0-510.0","","<div class=""circle ready""></div>","ready","","","",""
"null","null","html-keyboard-response","511","451106","0.0-511.0","","","isi","","","",""
"null","null","html-keyboard-response","512","451609","0.0-512.0","","<div class=""circle set""></div>","set","500","","",""
"1001"," ","html-keyboard-response","513","452611","0.0-513.0","","","go","","1100","1001","-99"
"null","null","html-keyboard-response","514","453112","0.0-514.0","","<div class=""circle""></div>","feedback_circle","","","",""
"null","null","html-keyboard-response","515","454114","0.0-515.0","","<div style=""font-size: 48px;"">+</div>
            <p style=""font-size: 16px; text-align: center;"">Trial 85 of 300</p>","iti","","","",""
"null","null","html-keyboard-response","516","454617","0.0-516.0","","<div class=""circle ready""></div>","ready","","","",""
"null","null","html-keyboard-response","517","456118","0.0-517.0","","","isi","","","",""
"null","null","html-keyboard-response","518","456620","0.0-518.0","","<div class=""circle set""></div>","set","500","","",""
"1483"," ","html-keyboard-response","519","458105","0.0-519.0","","","go","","1500","1483","-17"
"null","null","html-keyboard-response","520","458606","0.0-520.0","","<div class=""circle""></div>","feedback_circle","","","",""
"null","null","html-keyboard-response","521","459608","0.0-521.0","","<div style=""font-size: 48px;"">+</div>
            <p style=""font-size: 16px; text-align: center;"">Trial 86 of 300</p>","iti","","","",""
"null","null","html-keyboard-response","522","460111","0.0-522.0","","<div class=""circle ready""></div>","ready","","","",""
"null","null","html-keyboard-response","523","461213","0.0-523.0","","","isi","","","",""
"null","null","html-keyboard-response","524","461716","0.0-524.0","","<div class=""circle set""></div>","set","500","","",""
"1238"," ","html-keyboard-response","525","462955","0.0-525.0","","","go","","1100","1238","138"
"null","null","html-keyboard-response","526","463457","0.0-526.0","","<div class=""circle""></div>","feedback_circle","","","",""
"null","null","html-keyboard-response","527","464460","0.0-527.0","","<div style=""font-size: 48px;"">+</div>
            <p style=""font-size: 16px; text-align: center;"">Trial 87 of 300</p>","iti","","","",""
"null","null","html-keyboard-response","528","464962","0.0-528.0","","<div class=""circle ready""></div>","ready","","","",""
"null","null","html-keyboard-response","529","466064","0.0-529.0","","","isi","","","",""
"null","null","html-keyboard-response","530","466567","0.0-530.0","","<div class=""circle set""></div>","set","500","","",""
"1171"," ","html-keyboard-response","531","467739","0.0-531.0","","","go","","1100","1171","71"
"null","null","html-keyboard-response","532","468240","0.0-532.0","","<div class=""circle""></div>","feedback_circle","","","",""
"null","null","html-keyboard-response","533","469243","0.0-533.0","","<div style=""font-size: 48px;"">+</div>
            <p style=""font-size: 16px; text-align: center;"">Trial 88 of 300</p>","iti","","","",""
"null","null","html-keyboard-response","534","469745","0.0-534.0","","<div class=""circle ready""></div>","ready","","","",""
"null","null","html-keyboard-response","535","471248","0.0-535.0","","","isi","","","",""
"null","null","html-keyboard-response","536","471750","0.0-536.0","","<div class=""circle set""></div>","set","500","","",""
"1621"," ","html-keyboard-response","537","473372","0.0-537.0","","","go","","1500","1621","121"
"null","null","html-keyboard-response","538","473873","0.0-538.0","","<div class=""circle""></div>","feedback_circle","","","",""
"null","null","html-keyboard-response","539","474876","0.0-539.0","","<div style=""font-size: 48px;"">+</div>
            <p style=""font-size: 16px; text-align: center;"">Trial 89 of 300</p>","iti","","","",""
"null","null","html-keyboard-response","540","475378","0.0-540.0","","<div class=""circle ready""></div>","ready","","","",""
"null","null","html-keyboard-response","541","476980","0.0-541.0","","","isi","","","",""
"null","null","html-keyboard-response","542","477483","0.0-542.0","","<div class=""circle set""></div>","set","500","","",""
"1383"," ","html-keyboard-response","543","478867","0.0-543.0","","","go","","1600","1383","-217"
"null","null","html-keyboard-response","544","479368","0.0-544.0","","<div class=""circle""></div>","feedback_circle","","","",""
"null","null","html-keyboard-response","545","480371","0.0-545.0","","<div style=""font-size: 48px;"">+</div>
            <p style=""font-size: 16px; text-align: center;"">Trial 90 of 300</p>","iti","","","",""
"null","null","html-keyboard-response","546","480873","0.0-546.0","","<div class=""circle ready""></div>","ready","","","",""
"null","null","html-keyboard-response","547","482475","0.0-547.0","","","isi","","","",""
"null","null","html-keyboard-response","548","482978","0.0-548.0","","<div class=""circle set""></div>","set","500","","",""
"1516"," ","html-keyboard-response","549","484495","0.0-549.0","","","go","","1600","1516","-84"
"null","null","html-keyboard-response","550","484996","0.0-550.0","","<div class=""circle""></div>","feedback_circle","","","",""
"null","null","html-keyboard-response","551","485999","0.0-551.0","","<div style=""font-size: 48px;"">+</div>
            <p style=""font-size: 16px; text-align: center;"">Trial 91 of 300</p>","iti","","","",""
"null","null","html-keyboard-response","552","486500","0.0-552.0","","<div class=""circle ready""></div>","ready","","","",""
"null","null","html-keyboard-response","553","487902","0.0-553.0","","","isi","","","",""
"null","null","html-keyboard-response","554","488404","0.0-554.0","","<div class=""circle set""></div>","set","500","","",""
"1477"," ","html-keyboard-response","555","489882","0.0-555.0","","","go","","1400","1477","77"
"null","null","html-keyboard-response","556","490383","0.0-556.0","","<div class=""circle""></div>","feedback_circle","","","",""
"null","null","html-keyboard-response","557","491386","0.0-557.0","","<div style=""font-size: 48px;"">+</div>
            <p style=""font-size: 16px; text-align: center;"">Trial 92 of 300</p>","iti","","","",""
"null","null","html-keyboard-response","558","491888","0.0-558.0","","<div class=""circle ready""></div>","ready","","","",""
"null","null","html-keyboard-response","559","493291","0.0-559.0","","","isi","","","",""
"null","null","html-keyboard-response","560","493793","0.0-560.0","","<div class=""circle set""></div>","set","500","","",""
"1455"," ","html-keyboard-response","561","495250","0.0-561.0","","","go","","1400","1455","55"
"null","null","html-keyboard-response","562","495751","0.0-562.0","","<div class=""circle""></div>","feedback_circle","","","",""
"null","null","html-keyboard-response","563","496753","0.0-563.0","","<div style=""font-size: 48px;"">+</div>
            <p style=""font-size: 16px; text-align: center;"">Trial 93 of 300</p>","iti","","","",""
"null","null","html-keyboard-response","564","497256","0.0-564.0","","<div class=""circle ready""></div>","ready","","","",""
"null","null","html-keyboard-response","565","498359","0.0-565.0","","","isi","","","",""
"null","null","html-keyboard-response","566","498862","0.0-566.0","","<div class=""circle set""></div>","set","500","","",""
"1116"," ","html-keyboard-response","567","499978","0.0-567.0","","","go","","1100","1116","16"
"null","null","html-keyboard-response","568","500480","0.0-568.0","","<div class=""circle""></div>","feedback_circle","","","",""
"null","null","html-keyboard-response","569","501482","0.0-569.0","","<div style=""font-size: 48px;"">+</div>
            <p style=""font-size: 16px; text-align: center;"">Trial 94 of 300</p>","iti","","","",""
"null","null","html-keyboard-response","570","501985","0.0-570.0","","<div class=""circle ready""></div>","ready","","","",""
"null","null","html-keyboard-response","571","503387","0.0-571.0","","","isi","","","",""
"null","null","html-keyboard-response","572","503889","0.0-572.0","","<div class=""circle set""></div>","set","500","","",""
"1540"," ","html-keyboard-response","573","505430","0.0-573.0","","","go","","1400","1540","140"
"null","null","html-keyboard-response","574","505931","0.0-574.0","","<div class=""circle""></div>","feedback_circle","","","",""
"null","null","html-keyboard-response","575","506935","0.0-575.0","","<div style=""font-size: 48px;"">+</div>
            <p style=""font-size: 16px; text-align: center;"">Trial 95 of 300</p>","iti","","","",""
"null","null","html-keyboard-response","576","507436","0.0-576.0","","<div class=""circle ready""></div>","ready","","","",""
"null","null","html-keyboard-response","577","508939","0.0-577.0","","","isi","","","",""
"null","null","html-keyboard-response","578","509441","0.0-578.0","","<div class=""circle set""></div>","set","500","","",""
"1553"," ","html-keyboard-response","579","510995","0.0-579.0","","","go","","1500","1553","53"
"null","null","html-keyboard-response","580","511497","0.0-580.0","","<div class=""circle""></div>","feedback_circle","","","",""
"null","null","html-keyboard-response","581","512499","0.0-581.0","","<div style=""font-size: 48px;"">+</div>
            <p style=""font-size: 16px; text-align: center;"">Trial 96 of 300</p>","iti","","","",""
"null","null","html-keyboard-response","582","513000","0.0-582.0","","<div class=""circle ready""></div>","ready","","","",""
"null","null","html-keyboard-response","583","514302","0.0-583.0","","","isi","","","",""
"null","null","html-keyboard-response","584","514805","0.0-584.0","","<div class=""circle set""></div>","set","500","","",""
"1251"," ","html-keyboard-response","585","516056","0.0-585.0","","","go","","1300","1251","-49"
"null","null","html-keyboard-response","586","516558","0.0-586.0","","<div class=""circle""></div>","feedback_circle","","","",""
"null","null","html-keyboard-response","587","517561","0.0-587.0","","<div style=""font-size: 48px;"">+</div>
            <p style=""font-size: 16px; text-align: center;"">Trial 97 of 300</p>","iti","","","",""
"null","null","html-keyboard-response","588","518063","0.0-588.0","","<div class=""circle ready""></div>","ready","","","",""
"null","null","html-keyboard-response","589","519265","0.0-589.0","","","isi","","","",""
"null","null","html-keyboard-response","590","519768","0.0-590.0","","<div class=""circle set""></div>","set","500","","",""
"1291"," ","html-keyboard-response","591","521060","0.0-591.0","","","go","","1200","1291","91"
"null","null","html-keyboard-response","592","521561","0.0-592.0","","<div class=""circle""></div>","feedback_circle","","","",""
"null","null","html-keyboard-response","593","522564","0.0-593.0","","<div style=""font-size: 48px;"">+</div>
            <p style=""font-size: 16px; text-align: center;"">Trial 98 of 300</p>","iti","","","",""
"null","null","html-keyboard-response","594","523066","0.0-594.0","","<div class=""circle ready""></div>","ready","","","",""
"null","null","html-keyboard-response","595","524368","0.0-595.0","","","isi","","","",""
"null","null","html-keyboard-response","596","524869","0.0-596.0","","<div class=""circle set""></div>","set","500","","",""
"1337"," ","html-keyboard-response","597","526207","0.0-597.0","","","go","","1300","1337","37"
"null","null","html-keyboard-response","598","526708","0.0-598.0","","<div class=""circle""></div>","feedback_circle","","","",""
"null","null","html-keyboard-response","599","527711","0.0-599.0","","<div style=""font-size: 48px;"">+</div>
            <p style=""font-size: 16px; text-align: center;"">Trial 99 of 300</p>","iti","","","",""
"null","null","html-keyboard-response","600","528214","0.0-600.0","","<div class=""circle ready""></div>","ready","","","",""
"null","null","html-keyboard-response","601","529216","0.0-601.0","","","isi","","","",""
"null","null","html-keyboard-response","602","529718","0.0-602.0","","<div class=""circle set""></div>","set","500","","",""
"670"," ","html-keyboard-response","603","530389","0.0-603.0","","","go","","1000","670","-330"
"null","null","html-keyboard-response","604","530891","0.0-604.0","","<div class=""circle""></div>","feedback_circle","","","",""
"null","null","html-keyboard-response","605","531894","0.0-605.0","","<div style=""font-size: 48px;"">+</div>
            <p style=""font-size: 16px; text-align: center;"">Trial 100 of 300</p>","iti","","","",""
"null","null","html-keyboard-response","606","532395","0.0-606.0","","<div class=""circle ready""></div>","ready","","","",""
"null","null","html-keyboard-response","607","533997","0.0-607.0","","","isi","","","",""
"null","null","html-keyboard-response","608","534500","0.0-608.0","","<div class=""circle set""></div>","set","500","","",""
"1393"," ","html-keyboard-response","609","535893","0.0-609.0","","","go","","1600","1393","-207"
"null","null","html-keyboard-response","610","536395","0.0-610.0","","<div class=""circle""></div>","feedback_circle","","","",""
"null","null","html-keyboard-response","611","537397","0.0-611.0","","<div style=""font-size: 48px;"">+</div>
            <p style=""font-size: 16px; text-align: center;"">Trial 101 of 300</p>","iti","","","",""
"7262"," ","html-keyboard-response","612","544660","0.0-612.0","","<p><strong>Block change. Please press any key to continue.</strong></p>","block_transition","","","",""
"null","null","html-keyboard-response","613","545162","0.0-613.0","","<div class=""circle ready""></div>","ready","","","",""
"null","null","html-keyboard-response","614","546164","0.0-614.0","","","isi","","","",""
"null","null","html-keyboard-response","615","546666","0.0-615.0","","<div class=""circle set""></div>","set","500","","",""
"949"," ","html-keyboard-response","616","547617","0.0-616.0","","","go","","1000","949","-51"
"null","null","html-keyboard-response","617","548118","0.0-617.0","","<div class=""circle""></div>","feedback_circle","","","",""
"null","null","html-keyboard-response","618","549121","0.0-618.0","","<div style=""font-size: 48px;"">+</div>
            <p style=""font-size: 16px; text-align: center;"">Trial 102 of 300</p>","iti","","","",""
"null","null","html-keyboard-response","619","549623","0.0-619.0","","<div class=""circle ready""></div>","ready","","","",""
"null","null","html-keyboard-response","620","550226","0.0-620.0","","","isi","","","",""
"null","null","html-keyboard-response","621","550728","0.0-621.0","","<div class=""circle set""></div>","set","500","","",""
"551"," ","html-keyboard-response","622","551280","0.0-622.0","","","go","","600","551","-49"
"null","null","html-keyboard-response","623","551781","0.0-623.0","","<div class=""circle""></div>","feedback_circle","","","",""
"null","null","html-keyboard-response","624","552783","0.0-624.0","","<div style=""font-size: 48px;"">+</div>
            <p style=""font-size: 16px; text-align: center;"">Trial 103 of 300</p>","iti","","","",""
"null","null","html-keyboard-response","625","553286","0.0-625.0","","<div class=""circle ready""></div>","ready","","","",""
"null","null","html-keyboard-response","626","554388","0.0-626.0","","","isi","","","",""
"null","null","html-keyboard-response","627","554891","0.0-627.0","","<div class=""circle set""></div>","set","500","","",""
"662"," ","html-keyboard-response","628","555554","0.0-628.0","","","go","","1100","662","-438"
"null","null","html-keyboard-response","629","556055","0.0-629.0","","<div class=""circle""></div>","feedback_circle","","","",""
"null","null","html-keyboard-response","630","557057","0.0-630.0","","<div style=""font-size: 48px;"">+</div>
            <p style=""font-size: 16px; text-align: center;"">Trial 104 of 300</p>","iti","","","",""
"null","null","html-keyboard-response","631","557559","0.0-631.0","","<div class=""circle ready""></div>","ready","","","",""
"null","null","html-keyboard-response","632","558161","0.0-632.0","","","isi","","","",""
"null","null","html-keyboard-response","633","558663","0.0-633.0","","<div class=""circle set""></div>","set","500","","",""
"584"," ","html-keyboard-response","634","559248","0.0-634.0","","","go","","600","584","-16"
"null","null","html-keyboard-response","635","559750","0.0-635.0","","<div class=""circle""></div>","feedback_circle","","","",""
"null","null","html-keyboard-response","636","560752","0.0-636.0","","<div style=""font-size: 48px;"">+</div>
            <p style=""font-size: 16px; text-align: center;"">Trial 105 of 300</p>","iti","","","",""
"null","null","html-keyboard-response","637","561254","0.0-637.0","","<div class=""circle ready""></div>","ready","","","",""
"null","null","html-keyboard-response","638","562156","0.0-638.0","","","isi","","","",""
"null","null","html-keyboard-response","639","562658","0.0-639.0","","<div class=""circle set""></div>","set","500","","",""
"724"," ","html-keyboard-response","640","563383","0.0-640.0","","","go","","900","724","-176"
"null","null","html-keyboard-response","641","563885","0.0-641.0","","<div class=""circle""></div>","feedback_circle","","","",""
"null","null","html-keyboard-response","642","564887","0.0-642.0","","<div style=""font-size: 48px;"">+</div>
            <p style=""font-size: 16px; text-align: center;"">Trial 106 of 300</p>","iti","","","",""
"null","null","html-keyboard-response","643","565388","0.0-643.0","","<div class=""circle ready""></div>","ready","","","",""
"null","null","html-keyboard-response","644","566491","0.0-644.0","","","isi","","","",""
"null","null","html-keyboard-response","645","566993","0.0-645.0","","<div class=""circle set""></div>","set","500","","",""
"721"," ","html-keyboard-response","646","567715","0.0-646.0","","","go","","1100","721","-379"
"null","null","html-keyboard-response","647","568216","0.0-647.0","","<div class=""circle""></div>","feedback_circle","","","",""
"null","null","html-keyboard-response","648","569219","0.0-648.0","","<div style=""font-size: 48px;"">+</div>
            <p style=""font-size: 16px; text-align: center;"">Trial 107 of 300</p>","iti","","","",""
"null","null","html-keyboard-response","649","569720","0.0-649.0","","<div class=""circle ready""></div>","ready","","","",""
"null","null","html-keyboard-response","650","570822","0.0-650.0","","","isi","","","",""
"null","null","html-keyboard-response","651","571325","0.0-651.0","","<div class=""circle set""></div>","set","500","","",""
"1002"," ","html-keyboard-response","652","572327","0.0-652.0","","","go","","1100","1002","-98"
"null","null","html-keyboard-response","653","572829","0.0-653.0","","<div class=""circle""></div>","feedback_circle","","","",""
"null","null","html-keyboard-response","654","573830","0.0-654.0","","<div style=""font-size: 48px;"">+</div>
            <p style=""font-size: 16px; text-align: center;"">Trial 108 of 300</p>","iti","","","",""
"null","null","html-keyboard-response","655","574333","0.0-655.0","","<div class=""circle ready""></div>","ready","","","",""
"null","null","html-keyboard-response","656","575436","0.0-656.0","","","isi","","","",""
"null","null","html-keyboard-response","657","575939","0.0-657.0","","<div class=""circle set""></div>","set","500","","",""
"1029"," ","html-keyboard-response","658","576969","0.0-658.0","","","go","","1100","1029","-71"
"null","null","html-keyboard-response","659","577470","0.0-659.0","","<div class=""circle""></div>","feedback_circle","","","",""
"null","null","html-keyboard-response","660","578473","0.0-660.0","","<div style=""font-size: 48px;"">+</div>
            <p style=""font-size: 16px; text-align: center;"">Trial 109 of 300</p>","iti","","","",""
"null","null","html-keyboard-response","661","578974","0.0-661.0","","<div class=""circle ready""></div>","ready","","","",""
"null","null","html-keyboard-response","662","579777","0.0-662.0","","","isi","","","",""
"null","null","html-keyboard-response","663","580279","0.0-663.0","","<div class=""circle set""></div>","set","500","","",""
"991"," ","html-keyboard-response","664","581271","0.0-664.0","","","go","","800","991","191"
"null","null","html-keyboard-response","665","581772","0.0-665.0","","<div class=""circle""></div>","feedback_circle","","","",""
"null","null","html-keyboard-response","666","582775","0.0-666.0","","<div style=""font-size: 48px;"">+</div>
            <p style=""font-size: 16px; text-align: center;"">Trial 110 of 300</p>","iti","","","",""
"null","null","html-keyboard-response","667","583277","0.0-667.0","","<div class=""circle ready""></div>","ready","","","",""
"null","null","html-keyboard-response","668","584479","0.0-668.0","","","isi","","","",""
"null","null","html-keyboard-response","669","584981","0.0-669.0","","<div class=""circle set""></div>","set","500","","",""
"1325"," ","html-keyboard-response","670","586307","0.0-670.0","","","go","","1200","1325","125"
"null","null","html-keyboard-response","671","586809","0.0-671.0","","<div class=""circle""></div>","feedback_circle","","","",""
"null","null","html-keyboard-response","672","587811","0.0-672.0","","<div style=""font-size: 48px;"">+</div>
            <p style=""font-size: 16px; text-align: center;"">Trial 111 of 300</p>","iti","","","",""
"null","null","html-keyboard-response","673","588313","0.0-673.0","","<div class=""circle ready""></div>","ready","","","",""
"null","null","html-keyboard-response","674","589416","0.0-674.0","","","isi","","","",""
"null","null","html-keyboard-response","675","589918","0.0-675.0","","<div class=""circle set""></div>","set","500","","",""
"1158"," ","html-keyboard-response","676","591077","0.0-676.0","","","go","","1100","1158","58"
"null","null","html-keyboard-response","677","591579","0.0-677.0","","<div class=""circle""></div>","feedback_circle","","","",""
"null","null","html-keyboard-response","678","592581","0.0-678.0","","<div style=""font-size: 48px;"">+</div>
            <p style=""font-size: 16px; text-align: center;"">Trial 112 of 300</p>","iti","","","",""
"null","null","html-keyboard-response","679","593082","0.0-679.0","","<div class=""circle ready""></div>","ready","","","",""
"null","null","html-keyboard-response","680","594184","0.0-680.0","","","isi","","","",""
"null","null","html-keyboard-response","681","594686","0.0-681.0","","<div class=""circle set""></div>","set","500","","",""
"1099"," ","html-keyboard-response","682","595787","0.0-682.0","","","go","","1100","1099","-1"
"null","null","html-keyboard-response","683","596288","0.0-683.0","","<div class=""circle""></div>","feedback_circle","","","",""
"null","null","html-keyboard-response","684","597291","0.0-684.0","","<div style=""font-size: 48px;"">+</div>
            <p style=""font-size: 16px; text-align: center;"">Trial 113 of 300</p>","iti","","","",""
"null","null","html-keyboard-response","685","597793","0.0-685.0","","<div class=""circle ready""></div>","ready","","","",""
"null","null","html-keyboard-response","686","598695","0.0-686.0","","","isi","","","",""
"null","null","html-keyboard-response","687","599196","0.0-687.0","","<div class=""circle set""></div>","set","500","","",""
"879"," ","html-keyboard-response","688","600076","0.0-688.0","","","go","","900","879","-21"
"null","null","html-keyboard-response","689","600577","0.0-689.0","","<div class=""circle""></div>","feedback_circle","","","",""
"null","null","html-keyboard-response","690","601580","0.0-690.0","","<div style=""font-size: 48px;"">+</div>
            <p style=""font-size: 16px; text-align: center;"">Trial 114 of 300</p>","iti","","","",""
"null","null","html-keyboard-response","691","602082","0.0-691.0","","<div class=""circle ready""></div>","ready","","","",""
"null","null","html-keyboard-response","692","603284","0.0-692.0","","","isi","","","",""
"null","null","html-keyboard-response","693","603786","0.0-693.0","","<div class=""circle set""></div>","set","500","","",""
"1171"," ","html-keyboard-response","694","604958","0.0-694.0","","","go","","1200","1171","-29"
"null","null","html-keyboard-response","695","605460","0.0-695.0","","<div class=""circle""></div>","feedback_circle","","","",""
"null","null","html-keyboard-response","696","606463","0.0-696.0","","<div style=""font-size: 48px;"">+</div>
            <p style=""font-size: 16px; text-align: center;"">Trial 115 of 300</p>","iti","","","",""
"null","null","html-keyboard-response","697","606965","0.0-697.0","","<div class=""circle ready""></div>","ready","","","",""
"null","null","html-keyboard-response","698","608067","0.0-698.0","","","isi","","","",""
"null","null","html-keyboard-response","699","608570","0.0-699.0","","<div class=""circle set""></div>","set","500","","",""
"1049"," ","html-keyboard-response","700","609619","0.0-700.0","","","go","","1100","1049","-51"
"null","null","html-keyboard-response","701","610120","0.0-701.0","","<div class=""circle""></div>","feedback_circle","","","",""
"null","null","html-keyboard-response","702","611123","0.0-702.0","","<div style=""font-size: 48px;"">+</div>
            <p style=""font-size: 16px; text-align: center;"">Trial 116 of 300</p>","iti","","","",""
"null","null","html-keyboard-response","703","611625","0.0-703.0","","<div class=""circle ready""></div>","ready","","","",""
"null","null","html-keyboard-response","704","612827","0.0-704.0","","","isi","","","",""
"null","null","html-keyboard-response","705","613330","0.0-705.0","","<div class=""circle set""></div>","set","500","","",""
"1100"," ","html-keyboard-response","706","614431","0.0-706.0","","","go","","1200","1100","-100"
"null","null","html-keyboard-response","707","614933","0.0-707.0","","<div class=""circle""></div>","feedback_circle","","","",""
"null","null","html-keyboard-response","708","615935","0.0-708.0","","<div style=""font-size: 48px;"">+</div>
            <p style=""font-size: 16px; text-align: center;"">Trial 117 of 300</p>","iti","","","",""
"null","null","html-keyboard-response","709","616438","0.0-709.0","","<div class=""circle ready""></div>","ready","","","",""
"null","null","html-keyboard-response","710","617041","0.0-710.0","","","isi","","","",""
"null","null","html-keyboard-response","711","617544","0.0-711.0","","<div class=""circle set""></div>","set","500","","",""
"567"," ","html-keyboard-response","712","618112","0.0-712.0","","","go","","600","567","-33"
"null","null","html-keyboard-response","713","618613","0.0-713.0","","<div class=""circle""></div>","feedback_circle","","","",""
"null","null","html-keyboard-response","714","619616","0.0-714.0","","<div style=""font-size: 48px;"">+</div>
            <p style=""font-size: 16px; text-align: center;"">Trial 118 of 300</p>","iti","","","",""
"null","null","html-keyboard-response","715","620119","0.0-715.0","","<div class=""circle ready""></div>","ready","","","",""
"null","null","html-keyboard-response","716","621121","0.0-716.0","","","isi","","","",""
"null","null","html-keyboard-response","717","621623","0.0-717.0","","<div class=""circle set""></div>","set","500","","",""
"1090"," ","html-keyboard-response","718","622714","0.0-718.0","","","go","","1000","1090","90"
"null","null","html-keyboard-response","719","623216","0.0-719.0","","<div class=""circle""></div>","feedback_circle","","","",""
"null","null","html-keyboard-response","720","624219","0.0-720.0","","<div style=""font-size: 48px;"">+</div>
            <p style=""font-size: 16px; text-align: center;"">Trial 119 of 300</p>","iti","","","",""
"null","null","html-keyboard-response","721","624721","0.0-721.0","","<div class=""circle ready""></div>","ready","","","",""
"null","null","html-keyboard-response","722","625723","0.0-722.0","","","isi","","","",""
"null","null","html-keyboard-response","723","626225","0.0-723.0","","<div class=""circle set""></div>","set","500","","",""
"1013"," ","html-keyboard-response","724","627239","0.0-724.0","","","go","","1000","1013","13"
"null","null","html-keyboard-response","725","627740","0.0-725.0","","<div class=""circle""></div>","feedback_circle","","","",""
"null","null","html-keyboard-response","726","628743","0.0-726.0","","<div style=""font-size: 48px;"">+</div>
            <p style=""font-size: 16px; text-align: center;"">Trial 120 of 300</p>","iti","","","",""
"null","null","html-keyboard-response","727","629245","0.0-727.0","","<div class=""circle ready""></div>","ready","","","",""
"null","null","html-keyboard-response","728","629848","0.0-728.0","","","isi","","","",""
"null","null","html-keyboard-response","729","630350","0.0-729.0","","<div class=""circle set""></div>","set","500","","",""
"708"," ","html-keyboard-response","730","631059","0.0-730.0","","","go","","600","708","108"
"null","null","html-keyboard-response","731","631560","0.0-731.0","","<div class=""circle""></div>","feedback_circle","","","",""
"null","null","html-keyboard-response","732","632563","0.0-732.0","","<div style=""font-size: 48px;"">+</div>
            <p style=""font-size: 16px; text-align: center;"">Trial 121 of 300</p>","iti","","","",""
"null","null","html-keyboard-response","733","633066","0.0-733.0","","<div class=""circle ready""></div>","ready","","","",""
"null","null","html-keyboard-response","734","634169","0.0-734.0","","","isi","","","",""
"null","null","html-keyboard-response","735","634671","0.0-735.0","","<div class=""circle set""></div>","set","500","","",""
"1211"," ","html-keyboard-response","736","635883","0.0-736.0","","","go","","1100","1211","111"
"null","null","html-keyboard-response","737","636384","0.0-737.0","","<div class=""circle""></div>","feedback_circle","","","",""
"null","null","html-keyboard-response","738","637387","0.0-738.0","","<div style=""font-size: 48px;"">+</div>
            <p style=""font-size: 16px; text-align: center;"">Trial 122 of 300</p>","iti","","","",""
"null","null","html-keyboard-response","739","637889","0.0-739.0","","<div class=""circle ready""></div>","ready","","","",""
"null","null","html-keyboard-response","740","638592","0.0-740.0","","","isi","","","",""
"null","null","html-keyboard-response","741","639093","0.0-741.0","","<div class=""circle set""></div>","set","500","","",""
"762"," ","html-keyboard-response","742","639855","0.0-742.0","","","go","","700","762","62"
"null","null","html-keyboard-response","743","640357","0.0-743.0","","<div class=""circle""></div>","feedback_circle","","","",""
"null","null","html-keyboard-response","744","641361","0.0-744.0","","<div style=""font-size: 48px;"">+</div>
            <p style=""font-size: 16px; text-align: center;"">Trial 123 of 300</p>","iti","","","",""
"null","null","html-keyboard-response","745","641863","0.0-745.0","","<div class=""circle ready""></div>","ready","","","",""
"null","null","html-keyboard-response","746","643165","0.0-746.0","","","isi","","","",""
"null","null","html-keyboard-response","747","643668","0.0-747.0","","<div class=""circle set""></div>","set","500","","",""
"1197"," ","html-keyboard-response","748","644865","0.0-748.0","","","go","","1300","1197","-103"
"null","null","html-keyboard-response","749","645366","0.0-749.0","","<div class=""circle""></div>","feedback_circle","","","",""
"null","null","html-keyboard-response","750","646369","0.0-750.0","","<div style=""font-size: 48px;"">+</div>
            <p style=""font-size: 16px; text-align: center;"">Trial 124 of 300</p>","iti","","","",""
"null","null","html-keyboard-response","751","646872","0.0-751.0","","<div class=""circle ready""></div>","ready","","","",""
"null","null","html-keyboard-response","752","648174","0.0-752.0","","","isi","","","",""
"null","null","html-keyboard-response","753","648677","0.0-753.0","","<div class=""circle set""></div>","set","500","","",""
"1016"," ","html-keyboard-response","754","649694","0.0-754.0","","","go","","1300","1016","-284"
"null","null","html-keyboard-response","755","650195","0.0-755.0","","<div class=""circle""></div>","feedback_circle","","","",""
"null","null","html-keyboard-response","756","651197","0.0-756.0","","<div style=""font-size: 48px;"">+</div>
            <p style=""font-size: 16px; text-align: center;"">Trial 125 of 300</p>","iti","","","",""
