"rt","response","trial_type","trial_index","time_elapsed","internal_node_id","subject_ID","stimulus","phase","set_duration","target_interval","reproduced_interval","reproduction_error"
"1230","{""subject_id"":""ad""}","survey-text","0","1232","0.0-0.0","","","","","","",""
"855"," ","html-keyboard-response","1","2090","0.0-1.0","","
      <p>Ready-Set-Go Task:</p>
      <ul style=""text-align:left; max-width:600px; margin:auto;"">
        <li><strong>Blue circle (""Ready"")</strong> appears</li>
        <li>Then, after a delay, a <strong>green circle (""Set"")</strong> appears</li>
        <li>After ""Set"" disappears, screen goes blank</li>
        <li>You must <strong>press SPACE</strong> when you think the same delay has passed</li>
        <li>After you press, a red circle will appear</li>
        <li>Then you'll see how close your timing was (only for the first 5 trials).</li>
      </ul>
      <p>Press any key to begin.</p>
    ","","","","",""
"null","null","html-keyboard-response","2","2592","0.0-2.0","","<div class=""circle ready""></div>","ready","","","",""
"null","null","html-keyboard-response","3","2795","0.0-3.0","","","isi","","","",""
"null","null","html-keyboard-response","4","3297","0.0-4.0","","<div class=""circle set""></div>","set_on_1","","","",""
"null","null","html-keyboard-response","5","4800","0.0-5.0","","","set_gap","1500","","",""
"null","null","html-keyboard-response","6","5302","0.0-6.0","","<div class=""circle set""></div>","set_on_2","","","",""
"374"," ","html-keyboard-response","7","5677","0.0-7.0","","","go","1500","200","374","174"
"null","null","html-keyboard-response","8","6179","0.0-8.0","","<div class=""circle""></div>","feedback_circle","","","",""
"null","null","html-keyboard-response","9","6681","0.0-9.0","","<div class=""circle""></div>","feedback_circle","","","",""
"3081"," ","html-keyboard-response","10","9764","0.0-10.0","","
      <p><strong>Set duration:</strong> 1500 ms</p>
      <p><strong>Interval you saw:</strong> 200 ms</p>
      <p><strong>Interval you reported:</strong> 374 ms</p>
      <p><strong>Error:</strong> +174 ms</p>
      <p>Press any key to continue.</p>
    ","feedback_text","","","",""
"null","null","html-keyboard-response","11","10767","0.0-11.0","","<p style=""font-size: 48px;"">+</p>","iti","","","",""
"null","null","html-keyboard-response","12","11269","0.0-12.0","","<div class=""circle ready""></div>","ready","","","",""
"null","null","html-keyboard-response","13","12451","0.0-13.0","","","isi","","","",""
"null","null","html-keyboard-response","14","12954","0.0-14.0","","<div class=""circle set""></div>","set_on_1","","","",""
"null","null","html-keyboard-response","15","13456","0.0-15.0","","","set_gap","500","","",""
"null","null","html-keyboard-response","16","13959","0.0-16.0","","<div class=""circle set""></div>","set_on_2","","","",""
"831"," ","html-keyboard-response","17","14791","0.0-17.0","","","go","500","1180","831","-349"
"null","null","html-keyboard-response","18","15292","0.0-18.0","","<div class=""circle""></div>","feedback_circle","","","",""
"null","null","html-keyboard-response","19","15793","0.0-19.0","","<div class=""circle""></div>","feedback_circle","","","",""
"4626"," ","html-keyboard-response","20","20421","0.0-20.0","","
      <p><strong>Set duration:</strong> 500 ms</p>
      <p><strong>Interval you saw:</strong> 1180 ms</p>
      <p><strong>Interval you reported:</strong> 831 ms</p>
      <p><strong>Error:</strong> -349 ms</p>
      <p>Press any key to continue.</p>
    ","feedback_text","","","",""
"null","null","html-keyboard-response","21","21423","0.0-21.0","","<p style=""font-size: 48px;"">+</p>","iti","","","",""
"null","null","html-keyboard-response","22","21925","0.0-22.0","","<div class=""circle ready""></div>","ready","","","",""
"null","null","html-keyboard-response","23","23107","0.0-23.0","","","isi","","","",""
"null","null","html-keyboard-response","24","23608","0.0-24.0","","<div class=""circle set""></div>","set_on_1","","","",""
"null","null","html-keyboard-response","25","25111","0.0-25.0","","","set_gap","1500","","",""
"null","null","html-keyboard-response","26","25613","0.0-26.0","","<div class=""circle set""></div>","set_on_2","","","",""
"811"," ","html-keyboard-response","27","26424","0.0-27.0","","","go","1500","1180","811","-369"
"null","null","html-keyboard-response","28","26926","0.0-28.0","","<div class=""circle""></div>","feedback_circle","","","",""
"null","null","html-keyboard-response","29","27428","0.0-29.0","","<div class=""circle""></div>","feedback_circle","","","",""
"3422"," ","html-keyboard-response","30","30851","0.0-30.0","","
      <p><strong>Set duration:</strong> 1500 ms</p>
      <p><strong>Interval you saw:</strong> 1180 ms</p>
      <p><strong>Interval you reported:</strong> 811 ms</p>
      <p><strong>Error:</strong> -369 ms</p>
      <p>Press any key to continue.</p>
    ","feedback_text","","","",""
"null","null","html-keyboard-response","31","31854","0.0-31.0","","<p style=""font-size: 48px;"">+</p>","iti","","","",""
"null","null","html-keyboard-response","32","32357","0.0-32.0","","<div class=""circle ready""></div>","ready","","","",""
"null","null","html-keyboard-response","33","33209","0.0-33.0","","","isi","","","",""
"null","null","html-keyboard-response","34","33711","0.0-34.0","","<div class=""circle set""></div>","set_on_1","","","",""
"null","null","html-keyboard-response","35","34214","0.0-35.0","","","set_gap","500","","",""
"null","null","html-keyboard-response","36","34716","0.0-36.0","","<div class=""circle set""></div>","set_on_2","","","",""
"909"," ","html-keyboard-response","37","35626","0.0-37.0","","","go","500","850","909","59"
"null","null","html-keyboard-response","38","36127","0.0-38.0","","<div class=""circle""></div>","feedback_circle","","","",""
"null","null","html-keyboard-response","39","36629","0.0-39.0","","<div class=""circle""></div>","feedback_circle","","","",""
"1610"," ","html-keyboard-response","40","38240","0.0-40.0","","
      <p><strong>Set duration:</strong> 500 ms</p>
      <p><strong>Interval you saw:</strong> 850 ms</p>
      <p><strong>Interval you reported:</strong> 909 ms</p>
      <p><strong>Error:</strong> +59 ms</p>
      <p>Press any key to continue.</p>
    ","feedback_text","","","",""
"null","null","html-keyboard-response","41","39243","0.0-41.0","","<p style=""font-size: 48px;"">+</p>","iti","","","",""
"null","null","html-keyboard-response","42","39746","0.0-42.0","","<div class=""circle ready""></div>","ready","","","",""
"null","null","html-keyboard-response","43","39947","0.0-43.0","","","isi","","","",""
"null","null","html-keyboard-response","44","40450","0.0-44.0","","<div class=""circle set""></div>","set_on_1","","","",""
"null","null","html-keyboard-response","45","41203","0.0-45.0","","","set_gap","750","","",""
"null","null","html-keyboard-response","46","41705","0.0-46.0","","<div class=""circle set""></div>","set_on_2","","","",""
"140"," ","html-keyboard-response","47","41846","0.0-47.0","","","go","750","200","140","-60"
"null","null","html-keyboard-response","48","42347","0.0-48.0","","<div class=""circle""></div>","feedback_circle","","","",""
"null","null","html-keyboard-response","49","42850","0.0-49.0","","<div class=""circle""></div>","feedback_circle","","","",""
"3579"," ","html-keyboard-response","50","46429","0.0-50.0","","
      <p><strong>Set duration:</strong> 750 ms</p>
      <p><strong>Interval you saw:</strong> 200 ms</p>
      <p><strong>Interval you reported:</strong> 140 ms</p>
      <p><strong>Error:</strong> -60 ms</p>
      <p>Press any key to continue.</p>
    ","feedback_text","","","",""
"null","null","html-keyboard-response","51","47432","0.0-51.0","","<p style=""font-size: 48px;"">+</p>","iti","","","",""
"null","null","html-keyboard-response","52","47934","0.0-52.0","","<div class=""circle ready""></div>","ready","","","",""
"null","null","html-keyboard-response","53","49117","0.0-53.0","","","isi","","","",""
"null","null","html-keyboard-response","54","49620","0.0-54.0","","<div class=""circle set""></div>","set_on_1","","","",""
"null","null","html-keyboard-response","55","51121","0.0-55.0","","","set_gap","1500","","",""
"null","null","html-keyboard-response","56","51623","0.0-56.0","","<div class=""circle set""></div>","set_on_2","","","",""
"703"," ","html-keyboard-response","57","52328","0.0-57.0","","","go","1500","1180","703","-477"
"null","null","html-keyboard-response","58","52830","0.0-58.0","","<div class=""circle""></div>","feedback_circle","","","",""
"null","null","html-keyboard-response","59","53832","0.0-59.0","","<p style=""font-size: 48px;"">+</p>","iti","","","",""
"null","null","html-keyboard-response","60","54335","0.0-60.0","","<div class=""circle ready""></div>","ready","","","",""
"null","null","html-keyboard-response","61","54536","0.0-61.0","","","isi","","","",""
"null","null","html-keyboard-response","62","55039","0.0-62.0","","<div class=""circle set""></div>","set_on_1","","","",""
"null","null","html-keyboard-response","63","55541","0.0-63.0","","","set_gap","500","","",""
"null","null","html-keyboard-response","64","56043","0.0-64.0","","<div class=""circle set""></div>","set_on_2","","","",""
"149"," ","html-keyboard-response","65","56194","0.0-65.0","","","go","500","200","149","-51"
"null","null","html-keyboard-response","66","56695","0.0-66.0","","<div class=""circle""></div>","feedback_circle","","","",""
"null","null","html-keyboard-response","67","57697","0.0-67.0","","<p style=""font-size: 48px;"">+</p>","iti","","","",""
"null","null","html-keyboard-response","68","58200","0.0-68.0","","<div class=""circle ready""></div>","ready","","","",""
"null","null","html-keyboard-response","69","59053","0.0-69.0","","","isi","","","",""
"null","null","html-keyboard-response","70","59555","0.0-70.0","","<div class=""circle set""></div>","set_on_1","","","",""
"null","null","html-keyboard-response","71","60057","0.0-71.0","","","set_gap","500","","",""
"null","null","html-keyboard-response","72","60559","0.0-72.0","","<div class=""circle set""></div>","set_on_2","","","",""
"265"," ","html-keyboard-response","73","60825","0.0-73.0","","","go","500","850","265","-585"
"null","null","html-keyboard-response","74","61327","0.0-74.0","","<div class=""circle""></div>","feedback_circle","","","",""
"null","null","html-keyboard-response","75","62328","0.0-75.0","","<p style=""font-size: 48px;"">+</p>","iti","","","",""
"null","null","html-keyboard-response","76","62831","0.0-76.0","","<div class=""circle ready""></div>","ready","","","",""
"null","null","html-keyboard-response","77","64334","0.0-77.0","","","isi","","","",""
"null","null","html-keyboard-response","78","64836","0.0-78.0","","<div class=""circle set""></div>","set_on_1","","","",""
"null","null","html-keyboard-response","79","65588","0.0-79.0","","","set_gap","750","","",""
"null","null","html-keyboard-response","80","66090","0.0-80.0","","<div class=""circle set""></div>","set_on_2","","","",""
"233"," ","html-keyboard-response","81","66324","0.0-81.0","","","go","750","1500","233","-1267"
"null","null","html-keyboard-response","82","66826","0.0-82.0","","<div class=""circle""></div>","feedback_circle","","","",""
"null","null","html-keyboard-response","83","67828","0.0-83.0","","<p style=""font-size: 48px;"">+</p>","iti","","","",""
"null","null","html-keyboard-response","84","68331","0.0-84.0","","<div class=""circle ready""></div>","ready","","","",""
"null","null","html-keyboard-response","85","68863","0.0-85.0","","","isi","","","",""
"null","null","html-keyboard-response","86","69366","0.0-86.0","","<div class=""circle set""></div>","set_on_1","","","",""
"null","null","html-keyboard-response","87","70368","0.0-87.0","","","set_gap","1000","","",""
"null","null","html-keyboard-response","88","70870","0.0-88.0","","<div class=""circle set""></div>","set_on_2","","","",""
"339"," ","html-keyboard-response","89","71210","0.0-89.0","","","go","1000","530","339","-191"
"null","null","html-keyboard-response","90","71712","0.0-90.0","","<div class=""circle""></div>","feedback_circle","","","",""
"null","null","html-keyboard-response","91","72714","0.0-91.0","","<p style=""font-size: 48px;"">+</p>","iti","","","",""
"null","null","html-keyboard-response","92","73216","0.0-92.0","","<div class=""circle ready""></div>","ready","","","",""
"null","null","html-keyboard-response","93","74398","0.0-93.0","","","isi","","","",""
"null","null","html-keyboard-response","94","74900","0.0-94.0","","<div class=""circle set""></div>","set_on_1","","","",""
"null","null","html-keyboard-response","95","75402","0.0-95.0","","","set_gap","500","","",""
"null","null","html-keyboard-response","96","75904","0.0-96.0","","<div class=""circle set""></div>","set_on_2","","","",""
"904"," ","html-keyboard-response","97","76809","0.0-97.0","","","go","500","1180","904","-276"
"null","null","html-keyboard-response","98","77310","0.0-98.0","","<div class=""circle""></div>","feedback_circle","","","",""
"null","null","html-keyboard-response","99","78312","0.0-99.0","","<p style=""font-size: 48px;"">+</p>","iti","","","",""
"null","null","html-keyboard-response","100","78814","0.0-100.0","","<div class=""circle ready""></div>","ready","","","",""
"null","null","html-keyboard-response","101","79017","0.0-101.0","","","isi","","","",""
"null","null","html-keyboard-response","102","79519","0.0-102.0","","<div class=""circle set""></div>","set_on_1","","","",""
"null","null","html-keyboard-response","103","80021","0.0-103.0","","","set_gap","500","","",""
"null","null","html-keyboard-response","104","80524","0.0-104.0","","<div class=""circle set""></div>","set_on_2","","","",""
"136"," ","html-keyboard-response","105","80661","0.0-105.0","","","go","500","200","136","-64"
"null","null","html-keyboard-response","106","81162","0.0-106.0","","<div class=""circle""></div>","feedback_circle","","","",""
"null","null","html-keyboard-response","107","82165","0.0-107.0","","<p style=""font-size: 48px;"">+</p>","iti","","","",""
"null","null","html-keyboard-response","108","82667","0.0-108.0","","<div class=""circle ready""></div>","ready","","","",""
"null","null","html-keyboard-response","109","83850","0.0-109.0","","","isi","","","",""
"null","null","html-keyboard-response","110","84352","0.0-110.0","","<div class=""circle set""></div>","set_on_1","","","",""
"null","null","html-keyboard-response","111","85105","0.0-111.0","","","set_gap","750","","",""
"null","null","html-keyboard-response","112","85607","0.0-112.0","","<div class=""circle set""></div>","set_on_2","","","",""
"769"," ","html-keyboard-response","113","86377","0.0-113.0","","","go","750","1180","769","-411"
"null","null","html-keyboard-response","114","86878","0.0-114.0","","<div class=""circle""></div>","feedback_circle","","","",""
"null","null","html-keyboard-response","115","87880","0.0-115.0","","<p style=""font-size: 48px;"">+</p>","iti","","","",""
"null","null","html-keyboard-response","116","88382","0.0-116.0","","<div class=""circle ready""></div>","ready","","","",""
"null","null","html-keyboard-response","117","89884","0.0-117.0","","","isi","","","",""
"null","null","html-keyboard-response","118","90386","0.0-118.0","","<div class=""circle set""></div>","set_on_1","","","",""
"null","null","html-keyboard-response","119","90888","0.0-119.0","","","set_gap","500","","",""
"null","null","html-keyboard-response","120","91391","0.0-120.0","","<div class=""circle set""></div>","set_on_2","","","",""
"1132"," ","html-keyboard-response","121","92524","0.0-121.0","","","go","500","1500","1132","-368"
"null","null","html-keyboard-response","122","93025","0.0-122.0","","<div class=""circle""></div>","feedback_circle","","","",""
"null","null","html-keyboard-response","123","94027","0.0-123.0","","<p style=""font-size: 48px;"">+</p>","iti","","","",""
"null","null","html-keyboard-response","124","94529","0.0-124.0","","<div class=""circle ready""></div>","ready","","","",""
"null","null","html-keyboard-response","125","95062","0.0-125.0","","","isi","","","",""
"null","null","html-keyboard-response","126","95564","0.0-126.0","","<div class=""circle set""></div>","set_on_1","","","",""
"null","null","html-keyboard-response","127","97066","0.0-127.0","","","set_gap","1500","","",""
"null","null","html-keyboard-response","128","97568","0.0-128.0","","<div class=""circle set""></div>","set_on_2","","","",""
"1111"," ","html-keyboard-response","129","98681","0.0-129.0","","","go","1500","530","1111","581"
"null","null","html-keyboard-response","130","99182","0.0-130.0","","<div class=""circle""></div>","feedback_circle","","","",""
"null","null","html-keyboard-response","131","100184","0.0-131.0","","<p style=""font-size: 48px;"">+</p>","iti","","","",""
"null","null","html-keyboard-response","132","100687","0.0-132.0","","<div class=""circle ready""></div>","ready","","","",""
"null","null","html-keyboard-response","133","102189","0.0-133.0","","","isi","","","",""
"null","null","html-keyboard-response","134","102692","0.0-134.0","","<div class=""circle set""></div>","set_on_1","","","",""
"null","null","html-keyboard-response","135","103444","0.0-135.0","","","set_gap","750","","",""
"null","null","html-keyboard-response","136","103947","0.0-136.0","","<div class=""circle set""></div>","set_on_2","","","",""
"1176"," ","html-keyboard-response","137","105123","0.0-137.0","","","go","750","1500","1176","-324"
"null","null","html-keyboard-response","138","105625","0.0-138.0","","<div class=""circle""></div>","feedback_circle","","","",""
"null","null","html-keyboard-response","139","106627","0.0-139.0","","<p style=""font-size: 48px;"">+</p>","iti","","","",""
"null","null","html-keyboard-response","140","107130","0.0-140.0","","<div class=""circle ready""></div>","ready","","","",""
"null","null","html-keyboard-response","141","107981","0.0-141.0","","","isi","","","",""
"null","null","html-keyboard-response","142","108483","0.0-142.0","","<div class=""circle set""></div>","set_on_1","","","",""
"null","null","html-keyboard-response","143","109484","0.0-143.0","","","set_gap","1000","","",""
"null","null","html-keyboard-response","144","109986","0.0-144.0","","<div class=""circle set""></div>","set_on_2","","","",""
"956"," ","html-keyboard-response","145","110943","0.0-145.0","","","go","1000","850","956","106"
"null","null","html-keyboard-response","146","111444","0.0-146.0","","<div class=""circle""></div>","feedback_circle","","","",""
"null","null","html-keyboard-response","147","112445","0.0-147.0","","<p style=""font-size: 48px;"">+</p>","iti","","","",""
"null","null","html-keyboard-response","148","112947","0.0-148.0","","<div class=""circle ready""></div>","ready","","","",""
"null","null","html-keyboard-response","149","114450","0.0-149.0","","","isi","","","",""
"null","null","html-keyboard-response","150","114952","0.0-150.0","","<div class=""circle set""></div>","set_on_1","","","",""
"null","null","html-keyboard-response","151","116204","0.0-151.0","","","set_gap","1250","","",""
"null","null","html-keyboard-response","152","116706","0.0-152.0","","<div class=""circle set""></div>","set_on_2","","","",""
"1202"," ","html-keyboard-response","153","117909","0.0-153.0","","","go","1250","1500","1202","-298"
"null","null","html-keyboard-response","154","118409","0.0-154.0","","<div class=""circle""></div>","feedback_circle","","","",""
"null","null","html-keyboard-response","155","119412","0.0-155.0","","<p style=""font-size: 48px;"">+</p>","iti","","","",""
"null","null","html-keyboard-response","156","119913","0.0-156.0","","<div class=""circle ready""></div>","ready","","","",""
"null","null","html-keyboard-response","157","120766","0.0-157.0","","","isi","","","",""
"null","null","html-keyboard-response","158","121268","0.0-158.0","","<div class=""circle set""></div>","set_on_1","","","",""
"null","null","html-keyboard-response","159","122520","0.0-159.0","","","set_gap","1250","","",""
"null","null","html-keyboard-response","160","123023","0.0-160.0","","<div class=""circle set""></div>","set_on_2","","","",""
"985"," ","html-keyboard-response","161","124009","0.0-161.0","","","go","1250","850","985","135"
"null","null","html-keyboard-response","162","124510","0.0-162.0","","<div class=""circle""></div>","feedback_circle","","","",""
"null","null","html-keyboard-response","163","125512","0.0-163.0","","<p style=""font-size: 48px;"">+</p>","iti","","","",""
"null","null","html-keyboard-response","164","126015","0.0-164.0","","<div class=""circle ready""></div>","ready","","","",""
"null","null","html-keyboard-response","165","126867","0.0-165.0","","","isi","","","",""
"null","null","html-keyboard-response","166","127369","0.0-166.0","","<div class=""circle set""></div>","set_on_1","","","",""
"null","null","html-keyboard-response","167","128871","0.0-167.0","","","set_gap","1500","","",""
"null","null","html-keyboard-response","168","129374","0.0-168.0","","<div class=""circle set""></div>","set_on_2","","","",""
"1045"," ","html-keyboard-response","169","130419","0.0-169.0","","","go","1500","850","1045","195"
"null","null","html-keyboard-response","170","130920","0.0-170.0","","<div class=""circle""></div>","feedback_circle","","","",""
"null","null","html-keyboard-response","171","131923","0.0-171.0","","<p style=""font-size: 48px;"">+</p>","iti","","","",""
"null","null","html-keyboard-response","172","132425","0.0-172.0","","<div class=""circle ready""></div>","ready","","","",""
"null","null","html-keyboard-response","173","133607","0.0-173.0","","","isi","","","",""
"null","null","html-keyboard-response","174","134110","0.0-174.0","","<div class=""circle set""></div>","set_on_1","","","",""
"null","null","html-keyboard-response","175","135112","0.0-175.0","","","set_gap","1000","","",""
"null","null","html-keyboard-response","176","135615","0.0-176.0","","<div class=""circle set""></div>","set_on_2","","","",""
"866"," ","html-keyboard-response","177","136482","0.0-177.0","","","go","1000","1180","866","-314"
"null","null","html-keyboard-response","178","136983","0.0-178.0","","<div class=""circle""></div>","feedback_circle","","","",""
"null","null","html-keyboard-response","179","137985","0.0-179.0","","<p style=""font-size: 48px;"">+</p>","iti","","","",""
"null","null","html-keyboard-response","180","138487","0.0-180.0","","<div class=""circle ready""></div>","ready","","","",""
"null","null","html-keyboard-response","181","139020","0.0-181.0","","","isi","","","",""
"null","null","html-keyboard-response","182","139522","0.0-182.0","","<div class=""circle set""></div>","set_on_1","","","",""
"null","null","html-keyboard-response","183","140774","0.0-183.0","","","set_gap","1250","","",""
"null","null","html-keyboard-response","184","141276","0.0-184.0","","<div class=""circle set""></div>","set_on_2","","","",""
"445"," ","html-keyboard-response","185","141722","0.0-185.0","","","go","1250","530","445","-85"
"null","null","html-keyboard-response","186","142224","0.0-186.0","","<div class=""circle""></div>","feedback_circle","","","",""
"null","null","html-keyboard-response","187","143226","0.0-187.0","","<p style=""font-size: 48px;"">+</p>","iti","","","",""
"null","null","html-keyboard-response","188","143728","0.0-188.0","","<div class=""circle ready""></div>","ready","","","",""
"null","null","html-keyboard-response","189","144580","0.0-189.0","","","isi","","","",""
"null","null","html-keyboard-response","190","145082","0.0-190.0","","<div class=""circle set""></div>","set_on_1","","","",""
"null","null","html-keyboard-response","191","145834","0.0-191.0","","","set_gap","750","","",""
"null","null","html-keyboard-response","192","146337","0.0-192.0","","<div class=""circle set""></div>","set_on_2","","","",""
"517"," ","html-keyboard-response","193","146855","0.0-193.0","","","go","750","850","517","-333"
"null","null","html-keyboard-response","194","147356","0.0-194.0","","<div class=""circle""></div>","feedback_circle","","","",""
"null","null","html-keyboard-response","195","148359","0.0-195.0","","<p style=""font-size: 48px;"">+</p>","iti","","","",""
"null","null","html-keyboard-response","196","148861","0.0-196.0","","<div class=""circle ready""></div>","ready","","","",""
"null","null","html-keyboard-response","197","149063","0.0-197.0","","","isi","","","",""
"null","null","html-keyboard-response","198","149565","0.0-198.0","","<div class=""circle set""></div>","set_on_1","","","",""
"null","null","html-keyboard-response","199","151067","0.0-199.0","","","set_gap","1500","","",""
"null","null","html-keyboard-response","200","151569","0.0-200.0","","<div class=""circle set""></div>","set_on_2","","","",""
"229"," ","html-keyboard-response","201","151799","0.0-201.0","","","go","1500","200","229","29"
"null","null","html-keyboard-response","202","152300","0.0-202.0","","<div class=""circle""></div>","feedback_circle","","","",""
"null","null","html-keyboard-response","203","153302","0.0-203.0","","<p style=""font-size: 48px;"">+</p>","iti","","","",""
"null","null","html-keyboard-response","204","153804","0.0-204.0","","<div class=""circle ready""></div>","ready","","","",""
"null","null","html-keyboard-response","205","154006","0.0-205.0","","","isi","","","",""
"null","null","html-keyboard-response","206","154509","0.0-206.0","","<div class=""circle set""></div>","set_on_1","","","",""
"null","null","html-keyboard-response","207","156011","0.0-207.0","","","set_gap","1500","","",""
"null","null","html-keyboard-response","208","156513","0.0-208.0","","<div class=""circle set""></div>","set_on_2","","","",""
"114"," ","html-keyboard-response","209","156628","0.0-209.0","","","go","1500","200","114","-86"
"null","null","html-keyboard-response","210","157129","0.0-210.0","","<div class=""circle""></div>","feedback_circle","","","",""
"null","null","html-keyboard-response","211","158132","0.0-211.0","","<p style=""font-size: 48px;"">+</p>","iti","","","",""
"null","null","html-keyboard-response","212","158634","0.0-212.0","","<div class=""circle ready""></div>","ready","","","",""
"null","null","html-keyboard-response","213","160137","0.0-213.0","","","isi","","","",""
"null","null","html-keyboard-response","214","160639","0.0-214.0","","<div class=""circle set""></div>","set_on_1","","","",""
"null","null","html-keyboard-response","215","162142","0.0-215.0","","","set_gap","1500","","",""
"null","null","html-keyboard-response","216","162644","0.0-216.0","","<div class=""circle set""></div>","set_on_2","","","",""
"1072"," ","html-keyboard-response","217","163716","0.0-217.0","","","go","1500","1500","1072","-428"
"null","null","html-keyboard-response","218","164218","0.0-218.0","","<div class=""circle""></div>","feedback_circle","","","",""
"null","null","html-keyboard-response","219","165220","0.0-219.0","","<p style=""font-size: 48px;"">+</p>","iti","","","",""
"null","null","html-keyboard-response","220","165722","0.0-220.0","","<div class=""circle ready""></div>","ready","","","",""
"null","null","html-keyboard-response","221","167224","0.0-221.0","","","isi","","","",""
"null","null","html-keyboard-response","222","167726","0.0-222.0","","<div class=""circle set""></div>","set_on_1","","","",""
"null","null","html-keyboard-response","223","168979","0.0-223.0","","","set_gap","1250","","",""
"null","null","html-keyboard-response","224","169481","0.0-224.0","","<div class=""circle set""></div>","set_on_2","","","",""
"1256"," ","html-keyboard-response","225","170737","0.0-225.0","","","go","1250","1500","1256","-244"
"null","null","html-keyboard-response","226","171238","0.0-226.0","","<div class=""circle""></div>","feedback_circle","","","",""
"null","null","html-keyboard-response","227","172241","0.0-227.0","","<p style=""font-size: 48px;"">+</p>","iti","","","",""
"null","null","html-keyboard-response","228","172743","0.0-228.0","","<div class=""circle ready""></div>","ready","","","",""
"null","null","html-keyboard-response","229","172945","0.0-229.0","","","isi","","","",""
"null","null","html-keyboard-response","230","173447","0.0-230.0","","<div class=""circle set""></div>","set_on_1","","","",""
"null","null","html-keyboard-response","231","174449","0.0-231.0","","","set_gap","1000","","",""
"null","null","html-keyboard-response","232","174951","0.0-232.0","","<div class=""circle set""></div>","set_on_2","","","",""
"240"," ","html-keyboard-response","233","175192","0.0-233.0","","","go","1000","200","240","40"
"null","null","html-keyboard-response","234","175694","0.0-234.0","","<div class=""circle""></div>","feedback_circle","","","",""
"null","null","html-keyboard-response","235","176696","0.0-235.0","","<p style=""font-size: 48px;"">+</p>","iti","","","",""
"null","null","html-keyboard-response","236","177199","0.0-236.0","","<div class=""circle ready""></div>","ready","","","",""
"null","null","html-keyboard-response","237","178381","0.0-237.0","","","isi","","","",""
"null","null","html-keyboard-response","238","178883","0.0-238.0","","<div class=""circle set""></div>","set_on_1","","","",""
"null","null","html-keyboard-response","239","180385","0.0-239.0","","","set_gap","1500","","",""
"null","null","html-keyboard-response","240","180887","0.0-240.0","","<div class=""circle set""></div>","set_on_2","","","",""
"1071"," ","html-keyboard-response","241","181958","0.0-241.0","","","go","1500","1180","1071","-109"
"null","null","html-keyboard-response","242","182459","0.0-242.0","","<div class=""circle""></div>","feedback_circle","","","",""
"null","null","html-keyboard-response","243","183461","0.0-243.0","","<p style=""font-size: 48px;"">+</p>","iti","","","",""
"null","null","html-keyboard-response","244","183963","0.0-244.0","","<div class=""circle ready""></div>","ready","","","",""
"null","null","html-keyboard-response","245","184815","0.0-245.0","","","isi","","","",""
"null","null","html-keyboard-response","246","185317","0.0-246.0","","<div class=""circle set""></div>","set_on_1","","","",""
"null","null","html-keyboard-response","247","186820","0.0-247.0","","","set_gap","1500","","",""
"null","null","html-keyboard-response","248","187322","0.0-248.0","","<div class=""circle set""></div>","set_on_2","","","",""
"1069"," ","html-keyboard-response","249","188392","0.0-249.0","","","go","1500","850","1069","219"
"null","null","html-keyboard-response","250","188893","0.0-250.0","","<div class=""circle""></div>","feedback_circle","","","",""
"null","null","html-keyboard-response","251","189895","0.0-251.0","","<p style=""font-size: 48px;"">+</p>","iti","","","",""
"null","null","html-keyboard-response","252","190397","0.0-252.0","","<div class=""circle ready""></div>","ready","","","",""
"null","null","html-keyboard-response","253","191899","0.0-253.0","","","isi","","","",""
"null","null","html-keyboard-response","254","192402","0.0-254.0","","<div class=""circle set""></div>","set_on_1","","","",""
"null","null","html-keyboard-response","255","193903","0.0-255.0","","","set_gap","1500","","",""
"null","null","html-keyboard-response","256","194406","0.0-256.0","","<div class=""circle set""></div>","set_on_2","","","",""
"1044"," ","html-keyboard-response","257","195450","0.0-257.0","","","go","1500","1500","1044","-456"
"null","null","html-keyboard-response","258","195951","0.0-258.0","","<div class=""circle""></div>","feedback_circle","","","",""
"null","null","html-keyboard-response","259","196954","0.0-259.0","","<p style=""font-size: 48px;"">+</p>","iti","","","",""
"null","null","html-keyboard-response","260","197456","0.0-260.0","","<div class=""circle ready""></div>","ready","","","",""
"null","null","html-keyboard-response","261","198308","0.0-261.0","","","isi","","","",""
"null","null","html-keyboard-response","262","198811","0.0-262.0","","<div class=""circle set""></div>","set_on_1","","","",""
"null","null","html-keyboard-response","263","200063","0.0-263.0","","","set_gap","1250","","",""
"null","null","html-keyboard-response","264","200565","0.0-264.0","","<div class=""circle set""></div>","set_on_2","","","",""
"880"," ","html-keyboard-response","265","201446","0.0-265.0","","","go","1250","850","880","30"
"null","null","html-keyboard-response","266","201947","0.0-266.0","","<div class=""circle""></div>","feedback_circle","","","",""
"null","null","html-keyboard-response","267","202950","0.0-267.0","","<p style=""font-size: 48px;"">+</p>","iti","","","",""
"null","null","html-keyboard-response","268","203451","0.0-268.0","","<div class=""circle ready""></div>","ready","","","",""
"null","null","html-keyboard-response","269","204954","0.0-269.0","","","isi","","","",""
"null","null","html-keyboard-response","270","205456","0.0-270.0","","<div class=""circle set""></div>","set_on_1","","","",""
"null","null","html-keyboard-response","271","206459","0.0-271.0","","","set_gap","1000","","",""
"null","null","html-keyboard-response","272","206960","0.0-272.0","","<div class=""circle set""></div>","set_on_2","","","",""
"1153"," ","html-keyboard-response","273","208114","0.0-273.0","","","go","1000","1500","1153","-347"
"null","null","html-keyboard-response","274","208615","0.0-274.0","","<div class=""circle""></div>","feedback_circle","","","",""
"null","null","html-keyboard-response","275","209618","0.0-275.0","","<p style=""font-size: 48px;"">+</p>","iti","","","",""
"null","null","html-keyboard-response","276","210119","0.0-276.0","","<div class=""circle ready""></div>","ready","","","",""
"null","null","html-keyboard-response","277","210651","0.0-277.0","","","isi","","","",""
"null","null","html-keyboard-response","278","211153","0.0-278.0","","<div class=""circle set""></div>","set_on_1","","","",""
"null","null","html-keyboard-response","279","212155","0.0-279.0","","","set_gap","1000","","",""
"null","null","html-keyboard-response","280","212658","0.0-280.0","","<div class=""circle set""></div>","set_on_2","","","",""
"399"," ","html-keyboard-response","281","213057","0.0-281.0","","","go","1000","530","399","-131"
"null","null","html-keyboard-response","282","213559","0.0-282.0","","<div class=""circle""></div>","feedback_circle","","","",""
"null","null","html-keyboard-response","283","214561","0.0-283.0","","<p style=""font-size: 48px;"">+</p>","iti","","","",""
"null","null","html-keyboard-response","284","215063","0.0-284.0","","<div class=""circle ready""></div>","ready","","","",""
"null","null","html-keyboard-response","285","215264","0.0-285.0","","","isi","","","",""
"null","null","html-keyboard-response","286","215767","0.0-286.0","","<div class=""circle set""></div>","set_on_1","","","",""
"null","null","html-keyboard-response","287","216269","0.0-287.0","","","set_gap","500","","",""
"null","null","html-keyboard-response","288","216771","0.0-288.0","","<div class=""circle set""></div>","set_on_2","","","",""
"279"," ","html-keyboard-response","289","217051","0.0-289.0","","","go","500","200","279","79"
"null","null","html-keyboard-response","290","217552","0.0-290.0","","<div class=""circle""></div>","feedback_circle","","","",""
"null","null","html-keyboard-response","291","218554","0.0-291.0","","<p style=""font-size: 48px;"">+</p>","iti","","","",""
"null","null","html-keyboard-response","292","219056","0.0-292.0","","<div class=""circle ready""></div>","ready","","","",""
"null","null","html-keyboard-response","293","220557","0.0-293.0","","","isi","","","",""
"null","null","html-keyboard-response","294","221059","0.0-294.0","","<div class=""circle set""></div>","set_on_1","","","",""
"null","null","html-keyboard-response","295","221561","0.0-295.0","","","set_gap","500","","",""
"null","null","html-keyboard-response","296","222063","0.0-296.0","","<div class=""circle set""></div>","set_on_2","","","",""
"1098"," ","html-keyboard-response","297","223161","0.0-297.0","","","go","500","1500","1098","-402"
"null","null","html-keyboard-response","298","223663","0.0-298.0","","<div class=""circle""></div>","feedback_circle","","","",""
"null","null","html-keyboard-response","299","224666","0.0-299.0","","<p style=""font-size: 48px;"">+</p>","iti","","","",""
"null","null","html-keyboard-response","300","225168","0.0-300.0","","<div class=""circle ready""></div>","ready","","","",""
"null","null","html-keyboard-response","301","226020","0.0-301.0","","","isi","","","",""
"null","null","html-keyboard-response","302","226521","0.0-302.0","","<div class=""circle set""></div>","set_on_1","","","",""
"null","null","html-keyboard-response","303","228023","0.0-303.0","","","set_gap","1500","","",""
"null","null","html-keyboard-response","304","228525","0.0-304.0","","<div class=""circle set""></div>","set_on_2","","","",""
"1286"," ","html-keyboard-response","305","229812","0.0-305.0","","","go","1500","850","1286","436"
"null","null","html-keyboard-response","306","230313","0.0-306.0","","<div class=""circle""></div>","feedback_circle","","","",""
"null","null","html-keyboard-response","307","231316","0.0-307.0","","<p style=""font-size: 48px;"">+</p>","iti","","","",""
"null","null","html-keyboard-response","308","231818","0.0-308.0","","<div class=""circle ready""></div>","ready","","","",""
"null","null","html-keyboard-response","309","233001","0.0-309.0","","","isi","","","",""
"null","null","html-keyboard-response","310","233503","0.0-310.0","","<div class=""circle set""></div>","set_on_1","","","",""
"null","null","html-keyboard-response","311","234255","0.0-311.0","","","set_gap","750","","",""
"null","null","html-keyboard-response","312","234757","0.0-312.0","","<div class=""circle set""></div>","set_on_2","","","",""
"881"," ","html-keyboard-response","313","235639","0.0-313.0","","","go","750","1180","881","-299"
"null","null","html-keyboard-response","314","236140","0.0-314.0","","<div class=""circle""></div>","feedback_circle","","","",""
"null","null","html-keyboard-response","315","237143","0.0-315.0","","<p style=""font-size: 48px;"">+</p>","iti","","","",""
"null","null","html-keyboard-response","316","237645","0.0-316.0","","<div class=""circle ready""></div>","ready","","","",""
"null","null","html-keyboard-response","317","237847","0.0-317.0","","","isi","","","",""
"null","null","html-keyboard-response","318","238349","0.0-318.0","","<div class=""circle set""></div>","set_on_1","","","",""
"null","null","html-keyboard-response","319","239851","0.0-319.0","","","set_gap","1500","","",""
"null","null","html-keyboard-response","320","240354","0.0-320.0","","<div class=""circle set""></div>","set_on_2","","","",""
"147"," ","html-keyboard-response","321","240501","0.0-321.0","","","go","1500","200","147","-53"
"null","null","html-keyboard-response","322","241003","0.0-322.0","","<div class=""circle""></div>","feedback_circle","","","",""
"null","null","html-keyboard-response","323","242005","0.0-323.0","","<p style=""font-size: 48px;"">+</p>","iti","","","",""
"null","null","html-keyboard-response","324","242508","0.0-324.0","","<div class=""circle ready""></div>","ready","","","",""
"null","null","html-keyboard-response","325","244010","0.0-325.0","","","isi","","","",""
"null","null","html-keyboard-response","326","244513","0.0-326.0","","<div class=""circle set""></div>","set_on_1","","","",""
"null","null","html-keyboard-response","327","245515","0.0-327.0","","","set_gap","1000","","",""
"null","null","html-keyboard-response","328","246016","0.0-328.0","","<div class=""circle set""></div>","set_on_2","","","",""
"1391"," ","html-keyboard-response","329","247408","0.0-329.0","","","go","1000","1500","1391","-109"
"null","null","html-keyboard-response","330","247909","0.0-330.0","","<div class=""circle""></div>","feedback_circle","","","",""
"null","null","html-keyboard-response","331","248911","0.0-331.0","","<p style=""font-size: 48px;"">+</p>","iti","","","",""
"null","null","html-keyboard-response","332","249413","0.0-332.0","","<div class=""circle ready""></div>","ready","","","",""
"null","null","html-keyboard-response","333","249945","0.0-333.0","","","isi","","","",""
"null","null","html-keyboard-response","334","250447","0.0-334.0","","<div class=""circle set""></div>","set_on_1","","","",""
"null","null","html-keyboard-response","335","251950","0.0-335.0","","","set_gap","1500","","",""
"null","null","html-keyboard-response","336","252452","0.0-336.0","","<div class=""circle set""></div>","set_on_2","","","",""
"400"," ","html-keyboard-response","337","252854","0.0-337.0","","","go","1500","530","400","-130"
"null","null","html-keyboard-response","338","253355","0.0-338.0","","<div class=""circle""></div>","feedback_circle","","","",""
"null","null","html-keyboard-response","339","254357","0.0-339.0","","<p style=""font-size: 48px;"">+</p>","iti","","","",""
"null","null","html-keyboard-response","340","254859","0.0-340.0","","<div class=""circle ready""></div>","ready","","","",""
"null","null","html-keyboard-response","341","255712","0.0-341.0","","","isi","","","",""
"null","null","html-keyboard-response","342","256214","0.0-342.0","","<div class=""circle set""></div>","set_on_1","","","",""
"null","null","html-keyboard-response","343","256716","0.0-343.0","","","set_gap","500","","",""
"null","null","html-keyboard-response","344","257218","0.0-344.0","","<div class=""circle set""></div>","set_on_2","","","",""
"439"," ","html-keyboard-response","345","257658","0.0-345.0","","","go","500","850","439","-411"
"null","null","html-keyboard-response","346","258159","0.0-346.0","","<div class=""circle""></div>","feedback_circle","","","",""
"null","null","html-keyboard-response","347","259161","0.0-347.0","","<p style=""font-size: 48px;"">+</p>","iti","","","",""
"null","null","html-keyboard-response","348","259663","0.0-348.0","","<div class=""circle ready""></div>","ready","","","",""
"null","null","html-keyboard-response","349","260515","0.0-349.0","","","isi","","","",""
"null","null","html-keyboard-response","350","261017","0.0-350.0","","<div class=""circle set""></div>","set_on_1","","","",""
"null","null","html-keyboard-response","351","262519","0.0-351.0","","","set_gap","1500","","",""
"null","null","html-keyboard-response","352","263022","0.0-352.0","","<div class=""circle set""></div>","set_on_2","","","",""
"753"," ","html-keyboard-response","353","263776","0.0-353.0","","","go","1500","850","753","-97"
"null","null","html-keyboard-response","354","264277","0.0-354.0","","<div class=""circle""></div>","feedback_circle","","","",""
"null","null","html-keyboard-response","355","265280","0.0-355.0","","<p style=""font-size: 48px;"">+</p>","iti","","","",""
"null","null","html-keyboard-response","356","265782","0.0-356.0","","<div class=""circle ready""></div>","ready","","","",""
"null","null","html-keyboard-response","357","265985","0.0-357.0","","","isi","","","",""
"null","null","html-keyboard-response","358","266487","0.0-358.0","","<div class=""circle set""></div>","set_on_1","","","",""
"null","null","html-keyboard-response","359","266990","0.0-359.0","","","set_gap","500","","",""
"null","null","html-keyboard-response","360","267492","0.0-360.0","","<div class=""circle set""></div>","set_on_2","","","",""
"167"," ","html-keyboard-response","361","267660","0.0-361.0","","","go","500","200","167","-33"
"null","null","html-keyboard-response","362","268161","0.0-362.0","","<div class=""circle""></div>","feedback_circle","","","",""
"null","null","html-keyboard-response","363","269164","0.0-363.0","","<p style=""font-size: 48px;"">+</p>","iti","","","",""
"null","null","html-keyboard-response","364","269666","0.0-364.0","","<div class=""circle ready""></div>","ready","","","",""
"null","null","html-keyboard-response","365","269868","0.0-365.0","","","isi","","","",""
"null","null","html-keyboard-response","366","270371","0.0-366.0","","<div class=""circle set""></div>","set_on_1","","","",""
"null","null","html-keyboard-response","367","271373","0.0-367.0","","","set_gap","1000","","",""
"null","null","html-keyboard-response","368","271875","0.0-368.0","","<div class=""circle set""></div>","set_on_2","","","",""
"268"," ","html-keyboard-response","369","272144","0.0-369.0","","","go","1000","200","268","68"
"null","null","html-keyboard-response","370","272645","0.0-370.0","","<div class=""circle""></div>","feedback_circle","","","",""
"null","null","html-keyboard-response","371","273647","0.0-371.0","","<p style=""font-size: 48px;"">+</p>","iti","","","",""
"null","null","html-keyboard-response","372","274149","0.0-372.0","","<div class=""circle ready""></div>","ready","","","",""
"null","null","html-keyboard-response","373","275001","0.0-373.0","","","isi","","","",""
"null","null","html-keyboard-response","374","275503","0.0-374.0","","<div class=""circle set""></div>","set_on_1","","","",""
"null","null","html-keyboard-response","375","276755","0.0-375.0","","","set_gap","1250","","",""
"null","null","html-keyboard-response","376","277257","0.0-376.0","","<div class=""circle set""></div>","set_on_2","","","",""
"516"," ","html-keyboard-response","377","277774","0.0-377.0","","","go","1250","850","516","-334"
"null","null","html-keyboard-response","378","278275","0.0-378.0","","<div class=""circle""></div>","feedback_circle","","","",""
"null","null","html-keyboard-response","379","279277","0.0-379.0","","<p style=""font-size: 48px;"">+</p>","iti","","","",""
"null","null","html-keyboard-response","380","279779","0.0-380.0","","<div class=""circle ready""></div>","ready","","","",""
"null","null","html-keyboard-response","381","281281","0.0-381.0","","","isi","","","",""
"null","null","html-keyboard-response","382","281783","0.0-382.0","","<div class=""circle set""></div>","set_on_1","","","",""
"null","null","html-keyboard-response","383","282536","0.0-383.0","","","set_gap","750","","",""
"null","null","html-keyboard-response","384","283038","0.0-384.0","","<div class=""circle set""></div>","set_on_2","","","",""
"1209"," ","html-keyboard-response","385","284248","0.0-385.0","","","go","750","1500","1209","-291"
"null","null","html-keyboard-response","386","284749","0.0-386.0","","<div class=""circle""></div>","feedback_circle","","","",""
"null","null","html-keyboard-response","387","285751","0.0-387.0","","<p style=""font-size: 48px;"">+</p>","iti","","","",""
"null","null","html-keyboard-response","388","286253","0.0-388.0","","<div class=""circle ready""></div>","ready","","","",""
"null","null","html-keyboard-response","389","287435","0.0-389.0","","","isi","","","",""
"null","null","html-keyboard-response","390","287938","0.0-390.0","","<div class=""circle set""></div>","set_on_1","","","",""
"null","null","html-keyboard-response","391","289439","0.0-391.0","","","set_gap","1500","","",""
"null","null","html-keyboard-response","392","289940","0.0-392.0","","<div class=""circle set""></div>","set_on_2","","","",""
"1184"," ","html-keyboard-response","393","291125","0.0-393.0","","","go","1500","1180","1184","4"
"null","null","html-keyboard-response","394","291627","0.0-394.0","","<div class=""circle""></div>","feedback_circle","","","",""
"null","null","html-keyboard-response","395","292628","0.0-395.0","","<p style=""font-size: 48px;"">+</p>","iti","","","",""
"null","null","html-keyboard-response","396","293130","0.0-396.0","","<div class=""circle ready""></div>","ready","","","",""
"null","null","html-keyboard-response","397","293332","0.0-397.0","","","isi","","","",""
"null","null","html-keyboard-response","398","293834","0.0-398.0","","<div class=""circle set""></div>","set_on_1","","","",""
"null","null","html-keyboard-response","399","294336","0.0-399.0","","","set_gap","500","","",""
"null","null","html-keyboard-response","400","294838","0.0-400.0","","<div class=""circle set""></div>","set_on_2","","","",""
"249"," ","html-keyboard-response","401","295088","0.0-401.0","","","go","500","200","249","49"
"null","null","html-keyboard-response","402","295590","0.0-402.0","","<div class=""circle""></div>","feedback_circle","","","",""
"null","null","html-keyboard-response","403","296592","0.0-403.0","","<p style=""font-size: 48px;"">+</p>","iti","","","",""
"null","null","html-keyboard-response","404","297094","0.0-404.0","","<div class=""circle ready""></div>","ready","","","",""
"null","null","html-keyboard-response","405","298276","0.0-405.0","","","isi","","","",""
"null","null","html-keyboard-response","406","298779","0.0-406.0","","<div class=""circle set""></div>","set_on_1","","","",""
"null","null","html-keyboard-response","407","299281","0.0-407.0","","","set_gap","500","","",""
"null","null","html-keyboard-response","408","299782","0.0-408.0","","<div class=""circle set""></div>","set_on_2","","","",""
"907"," ","html-keyboard-response","409","300690","0.0-409.0","","","go","500","1180","907","-273"
"null","null","html-keyboard-response","410","301192","0.0-410.0","","<div class=""circle""></div>","feedback_circle","","","",""
"null","null","html-keyboard-response","411","302194","0.0-411.0","","<p style=""font-size: 48px;"">+</p>","iti","","","",""
"103237"," ","html-keyboard-response","412","405432","0.0-412.0","","
      <div style=""text-align:center;"">
        <h2>Performance Summary</h2>
        <div id=""plot""></div>
        <p>Each dot shows your reported interval vs actual interval per trial.</p>
        <p>Press any key to continue.</p>
      </div>
    ","","","","",""
"1439","0","html-button-response","413","406873","0.0-413.0","","<p>Click below to download your data as a CSV file.</p>","","","","",""
