"rt","response","trial_type","trial_index","time_elapsed","internal_node_id","subject_ID","stimulus","phase","set_duration","target_interval","reproduced_interval","reproduction_error"
"1033","{""subject_id"":""adi""}","survey-text","0","1037","0.0-0.0","","","","","","",""
"729"," ","html-keyboard-response","1","1770","0.0-1.0","","
      <p>Ready-Set-Go Task:</p>
      <ul style=""text-align:left; max-width:600px; margin:auto;"">
        <li>First, a <strong>red circle (""Ready"")</strong> appears</li>
        <li>Then, an <strong>orange circle (""Set"")</strong> appears after a delay</li>
        <li>You must <strong>press SPACE</strong> after an equal delay</li>
        <li>Then, a <strong>green circle (""Go"")</strong> appears</li>
        <li>You'll get feedback for the first 5 trials.</li>
      </ul>
      <p>Press any key to begin.</p>
    ","","","","",""
"null","null","html-keyboard-response","2","2272","0.0-2.0","","<div class=""circle ready""></div>","ready","","","",""
"null","null","html-keyboard-response","3","3126","0.0-3.0","","","isi","","","",""
"null","null","html-keyboard-response","4","3630","0.0-4.0","","<div class=""circle set""></div>","set","500","","",""
"739"," ","html-keyboard-response","5","4371","0.0-5.0","","","go","","850","739","-111"
"null","null","html-keyboard-response","6","4875","0.0-6.0","","<div class=""circle go""></div>","feedback_circle","","","",""
"null","null","html-keyboard-response","7","5379","0.0-7.0","","
      <div style=""text-align:center;"">
        <p><strong>Interval you saw:</strong> 850 ms</p>
        <p><strong>Interval you reported:</strong> 739 ms</p>
        <p><strong>Error:</strong> -111 ms</p>

        <div style=""position: relative; width: 80%; height: 40px; margin: 40px auto;"">
          <div style=""height: 8px; background: linear-gradient(to right, #3498db, #ccc, #e74c3c); border-radius: 4px;""></div>
          <div style=""position: absolute; left: 38.9%; top: -6px; transform: translateX(-50%);"">
            <div style=""width: 14px; height: 14px; background: black; border-radius: 50%; border: 2px solid white;""></div>
          </div>
          <div style=""position: absolute; left: 0%; top: 20px; font-size: 12px;"">–500 ms</div>
          <div style=""position: absolute; left: 50%; top: 20px; font-size: 12px; transform: translateX(-50%);"">0</div>
          <div style=""position: absolute; right: 0%; top: 20px; font-size: 12px;"">+500 ms</div>
        </div>

        <p>Press any key to continue.</p>
      </div>
    ","feedback_text","","","",""
"null","null","html-keyboard-response","8","6382","0.0-8.0","","<p style=""font-size: 48px;"">+</p>","iti","","","",""
"null","null","html-keyboard-response","9","6886","0.0-9.0","","<div class=""circle ready""></div>","ready","","","",""
"null","null","html-keyboard-response","10","7970","0.0-10.0","","","isi","","","",""
"null","null","html-keyboard-response","11","8473","0.0-11.0","","<div class=""circle set""></div>","set","500","","",""
"1064"," ","html-keyboard-response","12","9539","0.0-12.0","","","go","","1080","1064","-16"
"null","null","html-keyboard-response","13","10043","0.0-13.0","","<div class=""circle go""></div>","feedback_circle","","","",""
"null","null","html-keyboard-response","14","10546","0.0-14.0","","
      <div style=""text-align:center;"">
        <p><strong>Interval you saw:</strong> 1080 ms</p>
        <p><strong>Interval you reported:</strong> 1064 ms</p>
        <p><strong>Error:</strong> -16 ms</p>

        <div style=""position: relative; width: 80%; height: 40px; margin: 40px auto;"">
          <div style=""height: 8px; background: linear-gradient(to right, #3498db, #ccc, #e74c3c); border-radius: 4px;""></div>
          <div style=""position: absolute; left: 48.4%; top: -6px; transform: translateX(-50%);"">
            <div style=""width: 14px; height: 14px; background: black; border-radius: 50%; border: 2px solid white;""></div>
          </div>
          <div style=""position: absolute; left: 0%; top: 20px; font-size: 12px;"">–500 ms</div>
          <div style=""position: absolute; left: 50%; top: 20px; font-size: 12px; transform: translateX(-50%);"">0</div>
          <div style=""position: absolute; right: 0%; top: 20px; font-size: 12px;"">+500 ms</div>
        </div>

        <p>Press any key to continue.</p>
      </div>
    ","feedback_text","","","",""
"null","null","html-keyboard-response","15","11549","0.0-15.0","","<p style=""font-size: 48px;"">+</p>","iti","","","",""
"null","null","html-keyboard-response","16","12052","0.0-16.0","","<div class=""circle ready""></div>","ready","","","",""
"null","null","html-keyboard-response","17","13256","0.0-17.0","","","isi","","","",""
"null","null","html-keyboard-response","18","13760","0.0-18.0","","<div class=""circle set""></div>","set","500","","",""
"1268"," ","html-keyboard-response","19","15029","0.0-19.0","","","go","","1200","1268","68"
"null","null","html-keyboard-response","20","15532","0.0-20.0","","<div class=""circle go""></div>","feedback_circle","","","",""
"null","null","html-keyboard-response","21","16036","0.0-21.0","","
      <div style=""text-align:center;"">
        <p><strong>Interval you saw:</strong> 1200 ms</p>
        <p><strong>Interval you reported:</strong> 1268 ms</p>
        <p><strong>Error:</strong> +68 ms</p>

        <div style=""position: relative; width: 80%; height: 40px; margin: 40px auto;"">
          <div style=""height: 8px; background: linear-gradient(to right, #3498db, #ccc, #e74c3c); border-radius: 4px;""></div>
          <div style=""position: absolute; left: 56.8%; top: -6px; transform: translateX(-50%);"">
            <div style=""width: 14px; height: 14px; background: black; border-radius: 50%; border: 2px solid white;""></div>
          </div>
          <div style=""position: absolute; left: 0%; top: 20px; font-size: 12px;"">–500 ms</div>
          <div style=""position: absolute; left: 50%; top: 20px; font-size: 12px; transform: translateX(-50%);"">0</div>
          <div style=""position: absolute; right: 0%; top: 20px; font-size: 12px;"">+500 ms</div>
        </div>

        <p>Press any key to continue.</p>
      </div>
    ","feedback_text","","","",""
"null","null","html-keyboard-response","22","17039","0.0-22.0","","<p style=""font-size: 48px;"">+</p>","iti","","","",""
"null","null","html-keyboard-response","23","17543","0.0-23.0","","<div class=""circle ready""></div>","ready","","","",""
"null","null","html-keyboard-response","24","18507","0.0-24.0","","","isi","","","",""
"null","null","html-keyboard-response","25","19010","0.0-25.0","","<div class=""circle set""></div>","set","500","","",""
"1191"," ","html-keyboard-response","26","20203","0.0-26.0","","","go","","960","1191","231"
"null","null","html-keyboard-response","27","20705","0.0-27.0","","<div class=""circle go""></div>","feedback_circle","","","",""
"null","null","html-keyboard-response","28","21208","0.0-28.0","","
      <div style=""text-align:center;"">
        <p><strong>Interval you saw:</strong> 960 ms</p>
        <p><strong>Interval you reported:</strong> 1191 ms</p>
        <p><strong>Error:</strong> +231 ms</p>

        <div style=""position: relative; width: 80%; height: 40px; margin: 40px auto;"">
          <div style=""height: 8px; background: linear-gradient(to right, #3498db, #ccc, #e74c3c); border-radius: 4px;""></div>
          <div style=""position: absolute; left: 73.1%; top: -6px; transform: translateX(-50%);"">
            <div style=""width: 14px; height: 14px; background: black; border-radius: 50%; border: 2px solid white;""></div>
          </div>
          <div style=""position: absolute; left: 0%; top: 20px; font-size: 12px;"">–500 ms</div>
          <div style=""position: absolute; left: 50%; top: 20px; font-size: 12px; transform: translateX(-50%);"">0</div>
          <div style=""position: absolute; right: 0%; top: 20px; font-size: 12px;"">+500 ms</div>
        </div>

        <p>Press any key to continue.</p>
      </div>
    ","feedback_text","","","",""
"null","null","html-keyboard-response","29","22211","0.0-29.0","","<p style=""font-size: 48px;"">+</p>","iti","","","",""
"null","null","html-keyboard-response","30","22715","0.0-30.0","","<div class=""circle ready""></div>","ready","","","",""
"null","null","html-keyboard-response","31","23678","0.0-31.0","","","isi","","","",""
"null","null","html-keyboard-response","32","24182","0.0-32.0","","<div class=""circle set""></div>","set","500","","",""
"1191"," ","html-keyboard-response","33","25374","0.0-33.0","","","go","","960","1191","231"
"null","null","html-keyboard-response","34","25876","0.0-34.0","","<div class=""circle go""></div>","feedback_circle","","","",""
"null","null","html-keyboard-response","35","26379","0.0-35.0","","
      <div style=""text-align:center;"">
        <p><strong>Interval you saw:</strong> 960 ms</p>
        <p><strong>Interval you reported:</strong> 1191 ms</p>
        <p><strong>Error:</strong> +231 ms</p>

        <div style=""position: relative; width: 80%; height: 40px; margin: 40px auto;"">
          <div style=""height: 8px; background: linear-gradient(to right, #3498db, #ccc, #e74c3c); border-radius: 4px;""></div>
          <div style=""position: absolute; left: 73.1%; top: -6px; transform: translateX(-50%);"">
            <div style=""width: 14px; height: 14px; background: black; border-radius: 50%; border: 2px solid white;""></div>
          </div>
          <div style=""position: absolute; left: 0%; top: 20px; font-size: 12px;"">–500 ms</div>
          <div style=""position: absolute; left: 50%; top: 20px; font-size: 12px; transform: translateX(-50%);"">0</div>
          <div style=""position: absolute; right: 0%; top: 20px; font-size: 12px;"">+500 ms</div>
        </div>

        <p>Press any key to continue.</p>
      </div>
    ","feedback_text","","","",""
"null","null","html-keyboard-response","36","27382","0.0-36.0","","<p style=""font-size: 48px;"">+</p>","iti","","","",""
"null","null","html-keyboard-response","37","27886","0.0-37.0","","<div class=""circle ready""></div>","ready","","","",""
"null","null","html-keyboard-response","38","28969","0.0-38.0","","","isi","","","",""
"null","null","html-keyboard-response","39","29472","0.0-39.0","","<div class=""circle set""></div>","set","500","","",""
"1336"," ","html-keyboard-response","40","30809","0.0-40.0","","","go","","1080","1336","256"
"null","null","html-keyboard-response","41","31310","0.0-41.0","","<div class=""circle go""></div>","feedback_circle","","","",""
"null","null","html-keyboard-response","42","31813","0.0-42.0","","
      <div style=""text-align:center;"">
        <p><strong>Interval you saw:</strong> 1080 ms</p>
        <p><strong>Interval you reported:</strong> 1336 ms</p>
        <p><strong>Error:</strong> +256 ms</p>

        <div style=""position: relative; width: 80%; height: 40px; margin: 40px auto;"">
          <div style=""height: 8px; background: linear-gradient(to right, #3498db, #ccc, #e74c3c); border-radius: 4px;""></div>
          <div style=""position: absolute; left: 75.6%; top: -6px; transform: translateX(-50%);"">
            <div style=""width: 14px; height: 14px; background: black; border-radius: 50%; border: 2px solid white;""></div>
          </div>
          <div style=""position: absolute; left: 0%; top: 20px; font-size: 12px;"">–500 ms</div>
          <div style=""position: absolute; left: 50%; top: 20px; font-size: 12px; transform: translateX(-50%);"">0</div>
          <div style=""position: absolute; right: 0%; top: 20px; font-size: 12px;"">+500 ms</div>
        </div>

        <p>Press any key to continue.</p>
      </div>
    ","feedback_text","","","",""
"null","null","html-keyboard-response","43","32815","0.0-43.0","","<p style=""font-size: 48px;"">+</p>","iti","","","",""
"null","null","html-keyboard-response","44","33317","0.0-44.0","","<div class=""circle ready""></div>","ready","","","",""
"null","null","html-keyboard-response","45","34461","0.0-45.0","","","isi","","","",""
"null","null","html-keyboard-response","46","34964","0.0-46.0","","<div class=""circle set""></div>","set","500","","",""
"1065"," ","html-keyboard-response","47","36030","0.0-47.0","","","go","","1140","1065","-75"
"null","null","html-keyboard-response","48","36531","0.0-48.0","","<div class=""circle go""></div>","feedback_circle","","","",""
"null","null","html-keyboard-response","49","37035","0.0-49.0","","
      <div style=""text-align:center;"">
        <p><strong>Interval you saw:</strong> 1140 ms</p>
        <p><strong>Interval you reported:</strong> 1065 ms</p>
        <p><strong>Error:</strong> -75 ms</p>

        <div style=""position: relative; width: 80%; height: 40px; margin: 40px auto;"">
          <div style=""height: 8px; background: linear-gradient(to right, #3498db, #ccc, #e74c3c); border-radius: 4px;""></div>
          <div style=""position: absolute; left: 42.5%; top: -6px; transform: translateX(-50%);"">
            <div style=""width: 14px; height: 14px; background: black; border-radius: 50%; border: 2px solid white;""></div>
          </div>
          <div style=""position: absolute; left: 0%; top: 20px; font-size: 12px;"">–500 ms</div>
          <div style=""position: absolute; left: 50%; top: 20px; font-size: 12px; transform: translateX(-50%);"">0</div>
          <div style=""position: absolute; right: 0%; top: 20px; font-size: 12px;"">+500 ms</div>
        </div>

        <p>Press any key to continue.</p>
      </div>
    ","feedback_text","","","",""
"null","null","html-keyboard-response","50","38037","0.0-50.0","","<p style=""font-size: 48px;"">+</p>","iti","","","",""
"null","null","html-keyboard-response","51","38540","0.0-51.0","","<div class=""circle ready""></div>","ready","","","",""
"null","null","html-keyboard-response","52","39563","0.0-52.0","","","isi","","","",""
"null","null","html-keyboard-response","53","40066","0.0-53.0","","<div class=""circle set""></div>","set","500","","",""
"1292"," ","html-keyboard-response","54","41359","0.0-54.0","","","go","","1020","1292","272"
"null","null","html-keyboard-response","55","41861","0.0-55.0","","<div class=""circle go""></div>","feedback_circle","","","",""
"null","null","html-keyboard-response","56","42363","0.0-56.0","","
      <div style=""text-align:center;"">
        <p><strong>Interval you saw:</strong> 1020 ms</p>
        <p><strong>Interval you reported:</strong> 1292 ms</p>
        <p><strong>Error:</strong> +272 ms</p>

        <div style=""position: relative; width: 80%; height: 40px; margin: 40px auto;"">
          <div style=""height: 8px; background: linear-gradient(to right, #3498db, #ccc, #e74c3c); border-radius: 4px;""></div>
          <div style=""position: absolute; left: 77.2%; top: -6px; transform: translateX(-50%);"">
            <div style=""width: 14px; height: 14px; background: black; border-radius: 50%; border: 2px solid white;""></div>
          </div>
          <div style=""position: absolute; left: 0%; top: 20px; font-size: 12px;"">–500 ms</div>
          <div style=""position: absolute; left: 50%; top: 20px; font-size: 12px; transform: translateX(-50%);"">0</div>
          <div style=""position: absolute; right: 0%; top: 20px; font-size: 12px;"">+500 ms</div>
        </div>

        <p>Press any key to continue.</p>
      </div>
    ","feedback_text","","","",""
"null","null","html-keyboard-response","57","43365","0.0-57.0","","<p style=""font-size: 48px;"">+</p>","iti","","","",""
"null","null","html-keyboard-response","58","43868","0.0-58.0","","<div class=""circle ready""></div>","ready","","","",""
"null","null","html-keyboard-response","59","44831","0.0-59.0","","","isi","","","",""
"null","null","html-keyboard-response","60","45334","0.0-60.0","","<div class=""circle set""></div>","set","500","","",""
"978"," ","html-keyboard-response","61","46313","0.0-61.0","","","go","","960","978","18"
"null","null","html-keyboard-response","62","46815","0.0-62.0","","<div class=""circle go""></div>","feedback_circle","","","",""
"null","null","html-keyboard-response","63","47319","0.0-63.0","","
      <div style=""text-align:center;"">
        <p><strong>Interval you saw:</strong> 960 ms</p>
        <p><strong>Interval you reported:</strong> 978 ms</p>
        <p><strong>Error:</strong> +18 ms</p>

        <div style=""position: relative; width: 80%; height: 40px; margin: 40px auto;"">
          <div style=""height: 8px; background: linear-gradient(to right, #3498db, #ccc, #e74c3c); border-radius: 4px;""></div>
          <div style=""position: absolute; left: 51.800000000000004%; top: -6px; transform: translateX(-50%);"">
            <div style=""width: 14px; height: 14px; background: black; border-radius: 50%; border: 2px solid white;""></div>
          </div>
          <div style=""position: absolute; left: 0%; top: 20px; font-size: 12px;"">–500 ms</div>
          <div style=""position: absolute; left: 50%; top: 20px; font-size: 12px; transform: translateX(-50%);"">0</div>
          <div style=""position: absolute; right: 0%; top: 20px; font-size: 12px;"">+500 ms</div>
        </div>

        <p>Press any key to continue.</p>
      </div>
    ","feedback_text","","","",""
"null","null","html-keyboard-response","64","48322","0.0-64.0","","<p style=""font-size: 48px;"">+</p>","iti","","","",""
"null","null","html-keyboard-response","65","48824","0.0-65.0","","<div class=""circle ready""></div>","ready","","","",""
"null","null","html-keyboard-response","66","49787","0.0-66.0","","","isi","","","",""
"null","null","html-keyboard-response","67","50289","0.0-67.0","","<div class=""circle set""></div>","set","500","","",""
"862"," ","html-keyboard-response","68","51152","0.0-68.0","","","go","","960","862","-98"
"null","null","html-keyboard-response","69","51654","0.0-69.0","","<div class=""circle go""></div>","feedback_circle","","","",""
"null","null","html-keyboard-response","70","52157","0.0-70.0","","
      <div style=""text-align:center;"">
        <p><strong>Interval you saw:</strong> 960 ms</p>
        <p><strong>Interval you reported:</strong> 862 ms</p>
        <p><strong>Error:</strong> -98 ms</p>

        <div style=""position: relative; width: 80%; height: 40px; margin: 40px auto;"">
          <div style=""height: 8px; background: linear-gradient(to right, #3498db, #ccc, #e74c3c); border-radius: 4px;""></div>
          <div style=""position: absolute; left: 40.2%; top: -6px; transform: translateX(-50%);"">
            <div style=""width: 14px; height: 14px; background: black; border-radius: 50%; border: 2px solid white;""></div>
          </div>
          <div style=""position: absolute; left: 0%; top: 20px; font-size: 12px;"">–500 ms</div>
          <div style=""position: absolute; left: 50%; top: 20px; font-size: 12px; transform: translateX(-50%);"">0</div>
          <div style=""position: absolute; right: 0%; top: 20px; font-size: 12px;"">+500 ms</div>
        </div>

        <p>Press any key to continue.</p>
      </div>
    ","feedback_text","","","",""
"null","null","html-keyboard-response","71","53160","0.0-71.0","","<p style=""font-size: 48px;"">+</p>","iti","","","",""
"null","null","html-keyboard-response","72","53663","0.0-72.0","","<div class=""circle ready""></div>","ready","","","",""
"null","null","html-keyboard-response","73","54746","0.0-73.0","","","isi","","","",""
"null","null","html-keyboard-response","74","55249","0.0-74.0","","<div class=""circle set""></div>","set","500","","",""
"996"," ","html-keyboard-response","75","56245","0.0-75.0","","","go","","1080","996","-84"
"null","null","html-keyboard-response","76","56747","0.0-76.0","","<div class=""circle go""></div>","feedback_circle","","","",""
"null","null","html-keyboard-response","77","57250","0.0-77.0","","
      <div style=""text-align:center;"">
        <p><strong>Interval you saw:</strong> 1080 ms</p>
        <p><strong>Interval you reported:</strong> 996 ms</p>
        <p><strong>Error:</strong> -84 ms</p>

        <div style=""position: relative; width: 80%; height: 40px; margin: 40px auto;"">
          <div style=""height: 8px; background: linear-gradient(to right, #3498db, #ccc, #e74c3c); border-radius: 4px;""></div>
          <div style=""position: absolute; left: 41.6%; top: -6px; transform: translateX(-50%);"">
            <div style=""width: 14px; height: 14px; background: black; border-radius: 50%; border: 2px solid white;""></div>
          </div>
          <div style=""position: absolute; left: 0%; top: 20px; font-size: 12px;"">–500 ms</div>
          <div style=""position: absolute; left: 50%; top: 20px; font-size: 12px; transform: translateX(-50%);"">0</div>
          <div style=""position: absolute; right: 0%; top: 20px; font-size: 12px;"">+500 ms</div>
        </div>

        <p>Press any key to continue.</p>
      </div>
    ","feedback_text","","","",""
"null","null","html-keyboard-response","78","58252","0.0-78.0","","<p style=""font-size: 48px;"">+</p>","iti","","","",""
"null","null","html-keyboard-response","79","58755","0.0-79.0","","<div class=""circle ready""></div>","ready","","","",""
"null","null","html-keyboard-response","80","59668","0.0-80.0","","","isi","","","",""
"null","null","html-keyboard-response","81","60170","0.0-81.0","","<div class=""circle set""></div>","set","500","","",""
"993"," ","html-keyboard-response","82","61165","0.0-82.0","","","go","","910","993","83"
"null","null","html-keyboard-response","83","61667","0.0-83.0","","<div class=""circle go""></div>","feedback_circle","","","",""
"null","null","html-keyboard-response","84","62171","0.0-84.0","","
      <div style=""text-align:center;"">
        <p><strong>Interval you saw:</strong> 910 ms</p>
        <p><strong>Interval you reported:</strong> 993 ms</p>
        <p><strong>Error:</strong> +83 ms</p>

        <div style=""position: relative; width: 80%; height: 40px; margin: 40px auto;"">
          <div style=""height: 8px; background: linear-gradient(to right, #3498db, #ccc, #e74c3c); border-radius: 4px;""></div>
          <div style=""position: absolute; left: 58.3%; top: -6px; transform: translateX(-50%);"">
            <div style=""width: 14px; height: 14px; background: black; border-radius: 50%; border: 2px solid white;""></div>
          </div>
          <div style=""position: absolute; left: 0%; top: 20px; font-size: 12px;"">–500 ms</div>
          <div style=""position: absolute; left: 50%; top: 20px; font-size: 12px; transform: translateX(-50%);"">0</div>
          <div style=""position: absolute; right: 0%; top: 20px; font-size: 12px;"">+500 ms</div>
        </div>

        <p>Press any key to continue.</p>
      </div>
    ","feedback_text","","","",""
"null","null","html-keyboard-response","85","63174","0.0-85.0","","<p style=""font-size: 48px;"">+</p>","iti","","","",""
"null","null","html-keyboard-response","86","63677","0.0-86.0","","<div class=""circle ready""></div>","ready","","","",""
"null","null","html-keyboard-response","87","64699","0.0-87.0","","","isi","","","",""
"null","null","html-keyboard-response","88","65202","0.0-88.0","","<div class=""circle set""></div>","set","500","","",""
"1107"," ","html-keyboard-response","89","66310","0.0-89.0","","","go","","1020","1107","87"
"null","null","html-keyboard-response","90","66811","0.0-90.0","","<div class=""circle go""></div>","feedback_circle","","","",""
"null","null","html-keyboard-response","91","67314","0.0-91.0","","
      <div style=""text-align:center;"">
        <p><strong>Interval you saw:</strong> 1020 ms</p>
        <p><strong>Interval you reported:</strong> 1107 ms</p>
        <p><strong>Error:</strong> +87 ms</p>

        <div style=""position: relative; width: 80%; height: 40px; margin: 40px auto;"">
          <div style=""height: 8px; background: linear-gradient(to right, #3498db, #ccc, #e74c3c); border-radius: 4px;""></div>
          <div style=""position: absolute; left: 58.699999999999996%; top: -6px; transform: translateX(-50%);"">
            <div style=""width: 14px; height: 14px; background: black; border-radius: 50%; border: 2px solid white;""></div>
          </div>
          <div style=""position: absolute; left: 0%; top: 20px; font-size: 12px;"">–500 ms</div>
          <div style=""position: absolute; left: 50%; top: 20px; font-size: 12px; transform: translateX(-50%);"">0</div>
          <div style=""position: absolute; right: 0%; top: 20px; font-size: 12px;"">+500 ms</div>
        </div>

        <p>Press any key to continue.</p>
      </div>
    ","feedback_text","","","",""
"null","null","html-keyboard-response","92","68317","0.0-92.0","","<p style=""font-size: 48px;"">+</p>","iti","","","",""
"null","null","html-keyboard-response","93","68820","0.0-93.0","","<div class=""circle ready""></div>","ready","","","",""
"null","null","html-keyboard-response","94","69673","0.0-94.0","","","isi","","","",""
"null","null","html-keyboard-response","95","70176","0.0-95.0","","<div class=""circle set""></div>","set","500","","",""
"925"," ","html-keyboard-response","96","71102","0.0-96.0","","","go","","850","925","75"
"null","null","html-keyboard-response","97","71604","0.0-97.0","","<div class=""circle go""></div>","feedback_circle","","","",""
"null","null","html-keyboard-response","98","72107","0.0-98.0","","
      <div style=""text-align:center;"">
        <p><strong>Interval you saw:</strong> 850 ms</p>
        <p><strong>Interval you reported:</strong> 925 ms</p>
        <p><strong>Error:</strong> +75 ms</p>

        <div style=""position: relative; width: 80%; height: 40px; margin: 40px auto;"">
          <div style=""height: 8px; background: linear-gradient(to right, #3498db, #ccc, #e74c3c); border-radius: 4px;""></div>
          <div style=""position: absolute; left: 57.49999999999999%; top: -6px; transform: translateX(-50%);"">
            <div style=""width: 14px; height: 14px; background: black; border-radius: 50%; border: 2px solid white;""></div>
          </div>
          <div style=""position: absolute; left: 0%; top: 20px; font-size: 12px;"">–500 ms</div>
          <div style=""position: absolute; left: 50%; top: 20px; font-size: 12px; transform: translateX(-50%);"">0</div>
          <div style=""position: absolute; right: 0%; top: 20px; font-size: 12px;"">+500 ms</div>
        </div>

        <p>Press any key to continue.</p>
      </div>
    ","feedback_text","","","",""
"null","null","html-keyboard-response","99","73109","0.0-99.0","","<p style=""font-size: 48px;"">+</p>","iti","","","",""
"null","null","html-keyboard-response","100","73612","0.0-100.0","","<div class=""circle ready""></div>","ready","","","",""
"null","null","html-keyboard-response","101","74635","0.0-101.0","","","isi","","","",""
"null","null","html-keyboard-response","102","75138","0.0-102.0","","<div class=""circle set""></div>","set","500","","",""
"916"," ","html-keyboard-response","103","76055","0.0-103.0","","","go","","1020","916","-104"
"null","null","html-keyboard-response","104","76557","0.0-104.0","","<div class=""circle go""></div>","feedback_circle","","","",""
"null","null","html-keyboard-response","105","77060","0.0-105.0","","
      <div style=""text-align:center;"">
        <p><strong>Interval you saw:</strong> 1020 ms</p>
        <p><strong>Interval you reported:</strong> 916 ms</p>
        <p><strong>Error:</strong> -104 ms</p>

        <div style=""position: relative; width: 80%; height: 40px; margin: 40px auto;"">
          <div style=""height: 8px; background: linear-gradient(to right, #3498db, #ccc, #e74c3c); border-radius: 4px;""></div>
          <div style=""position: absolute; left: 39.6%; top: -6px; transform: translateX(-50%);"">
            <div style=""width: 14px; height: 14px; background: black; border-radius: 50%; border: 2px solid white;""></div>
          </div>
          <div style=""position: absolute; left: 0%; top: 20px; font-size: 12px;"">–500 ms</div>
          <div style=""position: absolute; left: 50%; top: 20px; font-size: 12px; transform: translateX(-50%);"">0</div>
          <div style=""position: absolute; right: 0%; top: 20px; font-size: 12px;"">+500 ms</div>
        </div>

        <p>Press any key to continue.</p>
      </div>
    ","feedback_text","","","",""
"null","null","html-keyboard-response","106","78063","0.0-106.0","","<p style=""font-size: 48px;"">+</p>","iti","","","",""
"null","null","html-keyboard-response","107","78565","0.0-107.0","","<div class=""circle ready""></div>","ready","","","",""
"null","null","html-keyboard-response","108","79768","0.0-108.0","","","isi","","","",""
"null","null","html-keyboard-response","109","80271","0.0-109.0","","<div class=""circle set""></div>","set","500","","",""
"1104"," ","html-keyboard-response","110","81377","0.0-110.0","","","go","","1200","1104","-96"
"null","null","html-keyboard-response","111","81879","0.0-111.0","","<div class=""circle go""></div>","feedback_circle","","","",""
"null","null","html-keyboard-response","112","82382","0.0-112.0","","
      <div style=""text-align:center;"">
        <p><strong>Interval you saw:</strong> 1200 ms</p>
        <p><strong>Interval you reported:</strong> 1104 ms</p>
        <p><strong>Error:</strong> -96 ms</p>

        <div style=""position: relative; width: 80%; height: 40px; margin: 40px auto;"">
          <div style=""height: 8px; background: linear-gradient(to right, #3498db, #ccc, #e74c3c); border-radius: 4px;""></div>
          <div style=""position: absolute; left: 40.400000000000006%; top: -6px; transform: translateX(-50%);"">
            <div style=""width: 14px; height: 14px; background: black; border-radius: 50%; border: 2px solid white;""></div>
          </div>
          <div style=""position: absolute; left: 0%; top: 20px; font-size: 12px;"">–500 ms</div>
          <div style=""position: absolute; left: 50%; top: 20px; font-size: 12px; transform: translateX(-50%);"">0</div>
          <div style=""position: absolute; right: 0%; top: 20px; font-size: 12px;"">+500 ms</div>
        </div>

        <p>Press any key to continue.</p>
      </div>
    ","feedback_text","","","",""
"null","null","html-keyboard-response","113","83386","0.0-113.0","","<p style=""font-size: 48px;"">+</p>","iti","","","",""
"null","null","html-keyboard-response","114","83889","0.0-114.0","","<div class=""circle ready""></div>","ready","","","",""
"null","null","html-keyboard-response","115","84802","0.0-115.0","","","isi","","","",""
"null","null","html-keyboard-response","116","85305","0.0-116.0","","<div class=""circle set""></div>","set","500","","",""
"1008"," ","html-keyboard-response","117","86314","0.0-117.0","","","go","","910","1008","98"
"null","null","html-keyboard-response","118","86816","0.0-118.0","","<div class=""circle go""></div>","feedback_circle","","","",""
"null","null","html-keyboard-response","119","87319","0.0-119.0","","
      <div style=""text-align:center;"">
        <p><strong>Interval you saw:</strong> 910 ms</p>
        <p><strong>Interval you reported:</strong> 1008 ms</p>
        <p><strong>Error:</strong> +98 ms</p>

        <div style=""position: relative; width: 80%; height: 40px; margin: 40px auto;"">
          <div style=""height: 8px; background: linear-gradient(to right, #3498db, #ccc, #e74c3c); border-radius: 4px;""></div>
          <div style=""position: absolute; left: 59.8%; top: -6px; transform: translateX(-50%);"">
            <div style=""width: 14px; height: 14px; background: black; border-radius: 50%; border: 2px solid white;""></div>
          </div>
          <div style=""position: absolute; left: 0%; top: 20px; font-size: 12px;"">–500 ms</div>
          <div style=""position: absolute; left: 50%; top: 20px; font-size: 12px; transform: translateX(-50%);"">0</div>
          <div style=""position: absolute; right: 0%; top: 20px; font-size: 12px;"">+500 ms</div>
        </div>

        <p>Press any key to continue.</p>
      </div>
    ","feedback_text","","","",""
"null","null","html-keyboard-response","120","88322","0.0-120.0","","<p style=""font-size: 48px;"">+</p>","iti","","","",""
"null","null","html-keyboard-response","121","88825","0.0-121.0","","<div class=""circle ready""></div>","ready","","","",""
"null","null","html-keyboard-response","122","89789","0.0-122.0","","","isi","","","",""
"null","null","html-keyboard-response","123","90291","0.0-123.0","","<div class=""circle set""></div>","set","500","","",""
"913"," ","html-keyboard-response","124","91205","0.0-124.0","","","go","","960","913","-47"
"null","null","html-keyboard-response","125","91707","0.0-125.0","","<div class=""circle go""></div>","feedback_circle","","","",""
"null","null","html-keyboard-response","126","92210","0.0-126.0","","
      <div style=""text-align:center;"">
        <p><strong>Interval you saw:</strong> 960 ms</p>
        <p><strong>Interval you reported:</strong> 913 ms</p>
        <p><strong>Error:</strong> -47 ms</p>

        <div style=""position: relative; width: 80%; height: 40px; margin: 40px auto;"">
          <div style=""height: 8px; background: linear-gradient(to right, #3498db, #ccc, #e74c3c); border-radius: 4px;""></div>
          <div style=""position: absolute; left: 45.300000000000004%; top: -6px; transform: translateX(-50%);"">
            <div style=""width: 14px; height: 14px; background: black; border-radius: 50%; border: 2px solid white;""></div>
          </div>
          <div style=""position: absolute; left: 0%; top: 20px; font-size: 12px;"">–500 ms</div>
          <div style=""position: absolute; left: 50%; top: 20px; font-size: 12px; transform: translateX(-50%);"">0</div>
          <div style=""position: absolute; right: 0%; top: 20px; font-size: 12px;"">+500 ms</div>
        </div>

        <p>Press any key to continue.</p>
      </div>
    ","feedback_text","","","",""
"null","null","html-keyboard-response","127","93212","0.0-127.0","","<p style=""font-size: 48px;"">+</p>","iti","","","",""
"null","null","html-keyboard-response","128","93716","0.0-128.0","","<div class=""circle ready""></div>","ready","","","",""
"null","null","html-keyboard-response","129","94569","0.0-129.0","","","isi","","","",""
"null","null","html-keyboard-response","130","95071","0.0-130.0","","<div class=""circle set""></div>","set","500","","",""
"1147"," ","html-keyboard-response","131","96220","0.0-131.0","","","go","","850","1147","297"
"null","null","html-keyboard-response","132","96722","0.0-132.0","","<div class=""circle go""></div>","feedback_circle","","","",""
"null","null","html-keyboard-response","133","97225","0.0-133.0","","
      <div style=""text-align:center;"">
        <p><strong>Interval you saw:</strong> 850 ms</p>
        <p><strong>Interval you reported:</strong> 1147 ms</p>
        <p><strong>Error:</strong> +297 ms</p>

        <div style=""position: relative; width: 80%; height: 40px; margin: 40px auto;"">
          <div style=""height: 8px; background: linear-gradient(to right, #3498db, #ccc, #e74c3c); border-radius: 4px;""></div>
          <div style=""position: absolute; left: 79.7%; top: -6px; transform: translateX(-50%);"">
            <div style=""width: 14px; height: 14px; background: black; border-radius: 50%; border: 2px solid white;""></div>
          </div>
          <div style=""position: absolute; left: 0%; top: 20px; font-size: 12px;"">–500 ms</div>
          <div style=""position: absolute; left: 50%; top: 20px; font-size: 12px; transform: translateX(-50%);"">0</div>
          <div style=""position: absolute; right: 0%; top: 20px; font-size: 12px;"">+500 ms</div>
        </div>

        <p>Press any key to continue.</p>
      </div>
    ","feedback_text","","","",""
"null","null","html-keyboard-response","134","98226","0.0-134.0","","<p style=""font-size: 48px;"">+</p>","iti","","","",""
"null","null","html-keyboard-response","135","98729","0.0-135.0","","<div class=""circle ready""></div>","ready","","","",""
"null","null","html-keyboard-response","136","99872","0.0-136.0","","","isi","","","",""
"null","null","html-keyboard-response","137","100375","0.0-137.0","","<div class=""circle set""></div>","set","500","","",""
"1088"," ","html-keyboard-response","138","101463","0.0-138.0","","","go","","1140","1088","-52"
"null","null","html-keyboard-response","139","101965","0.0-139.0","","<div class=""circle go""></div>","feedback_circle","","","",""
"null","null","html-keyboard-response","140","102468","0.0-140.0","","
      <div style=""text-align:center;"">
        <p><strong>Interval you saw:</strong> 1140 ms</p>
        <p><strong>Interval you reported:</strong> 1088 ms</p>
        <p><strong>Error:</strong> -52 ms</p>

        <div style=""position: relative; width: 80%; height: 40px; margin: 40px auto;"">
          <div style=""height: 8px; background: linear-gradient(to right, #3498db, #ccc, #e74c3c); border-radius: 4px;""></div>
          <div style=""position: absolute; left: 44.800000000000004%; top: -6px; transform: translateX(-50%);"">
            <div style=""width: 14px; height: 14px; background: black; border-radius: 50%; border: 2px solid white;""></div>
          </div>
          <div style=""position: absolute; left: 0%; top: 20px; font-size: 12px;"">–500 ms</div>
          <div style=""position: absolute; left: 50%; top: 20px; font-size: 12px; transform: translateX(-50%);"">0</div>
          <div style=""position: absolute; right: 0%; top: 20px; font-size: 12px;"">+500 ms</div>
        </div>

        <p>Press any key to continue.</p>
      </div>
    ","feedback_text","","","",""
"null","null","html-keyboard-response","141","103470","0.0-141.0","","<p style=""font-size: 48px;"">+</p>","iti","","","",""
"null","null","html-keyboard-response","142","103972","0.0-142.0","","<div class=""circle ready""></div>","ready","","","",""
"null","null","html-keyboard-response","143","105175","0.0-143.0","","","isi","","","",""
"null","null","html-keyboard-response","144","105678","0.0-144.0","","<div class=""circle set""></div>","set","500","","",""
"1131"," ","html-keyboard-response","145","106809","0.0-145.0","","","go","","1200","1131","-69"
"null","null","html-keyboard-response","146","107312","0.0-146.0","","<div class=""circle go""></div>","feedback_circle","","","",""
"null","null","html-keyboard-response","147","107815","0.0-147.0","","
      <div style=""text-align:center;"">
        <p><strong>Interval you saw:</strong> 1200 ms</p>
        <p><strong>Interval you reported:</strong> 1131 ms</p>
        <p><strong>Error:</strong> -69 ms</p>

        <div style=""position: relative; width: 80%; height: 40px; margin: 40px auto;"">
          <div style=""height: 8px; background: linear-gradient(to right, #3498db, #ccc, #e74c3c); border-radius: 4px;""></div>
          <div style=""position: absolute; left: 43.1%; top: -6px; transform: translateX(-50%);"">
            <div style=""width: 14px; height: 14px; background: black; border-radius: 50%; border: 2px solid white;""></div>
          </div>
          <div style=""position: absolute; left: 0%; top: 20px; font-size: 12px;"">–500 ms</div>
          <div style=""position: absolute; left: 50%; top: 20px; font-size: 12px; transform: translateX(-50%);"">0</div>
          <div style=""position: absolute; right: 0%; top: 20px; font-size: 12px;"">+500 ms</div>
        </div>

        <p>Press any key to continue.</p>
      </div>
    ","feedback_text","","","",""
"null","null","html-keyboard-response","148","108817","0.0-148.0","","<p style=""font-size: 48px;"">+</p>","iti","","","",""
"null","null","html-keyboard-response","149","109320","0.0-149.0","","<div class=""circle ready""></div>","ready","","","",""
"null","null","html-keyboard-response","150","110523","0.0-150.0","","","isi","","","",""
"null","null","html-keyboard-response","151","111026","0.0-151.0","","<div class=""circle set""></div>","set","500","","",""
"1244"," ","html-keyboard-response","152","112271","0.0-152.0","","","go","","1200","1244","44"
"null","null","html-keyboard-response","153","112772","0.0-153.0","","<div class=""circle go""></div>","feedback_circle","","","",""
"null","null","html-keyboard-response","154","113275","0.0-154.0","","
      <div style=""text-align:center;"">
        <p><strong>Interval you saw:</strong> 1200 ms</p>
        <p><strong>Interval you reported:</strong> 1244 ms</p>
        <p><strong>Error:</strong> +44 ms</p>

        <div style=""position: relative; width: 80%; height: 40px; margin: 40px auto;"">
          <div style=""height: 8px; background: linear-gradient(to right, #3498db, #ccc, #e74c3c); border-radius: 4px;""></div>
          <div style=""position: absolute; left: 54.400000000000006%; top: -6px; transform: translateX(-50%);"">
            <div style=""width: 14px; height: 14px; background: black; border-radius: 50%; border: 2px solid white;""></div>
          </div>
          <div style=""position: absolute; left: 0%; top: 20px; font-size: 12px;"">–500 ms</div>
          <div style=""position: absolute; left: 50%; top: 20px; font-size: 12px; transform: translateX(-50%);"">0</div>
          <div style=""position: absolute; right: 0%; top: 20px; font-size: 12px;"">+500 ms</div>
        </div>

        <p>Press any key to continue.</p>
      </div>
    ","feedback_text","","","",""
"null","null","html-keyboard-response","155","114277","0.0-155.0","","<p style=""font-size: 48px;"">+</p>","iti","","","",""
"null","null","html-keyboard-response","156","114780","0.0-156.0","","<div class=""circle ready""></div>","ready","","","",""
"null","null","html-keyboard-response","157","115803","0.0-157.0","","","isi","","","",""
"null","null","html-keyboard-response","158","116305","0.0-158.0","","<div class=""circle set""></div>","set","500","","",""
"1111"," ","html-keyboard-response","159","117417","0.0-159.0","","","go","","1020","1111","91"
"null","null","html-keyboard-response","160","117919","0.0-160.0","","<div class=""circle go""></div>","feedback_circle","","","",""
"null","null","html-keyboard-response","161","118422","0.0-161.0","","
      <div style=""text-align:center;"">
        <p><strong>Interval you saw:</strong> 1020 ms</p>
        <p><strong>Interval you reported:</strong> 1111 ms</p>
        <p><strong>Error:</strong> +91 ms</p>

        <div style=""position: relative; width: 80%; height: 40px; margin: 40px auto;"">
          <div style=""height: 8px; background: linear-gradient(to right, #3498db, #ccc, #e74c3c); border-radius: 4px;""></div>
          <div style=""position: absolute; left: 59.099999999999994%; top: -6px; transform: translateX(-50%);"">
            <div style=""width: 14px; height: 14px; background: black; border-radius: 50%; border: 2px solid white;""></div>
          </div>
          <div style=""position: absolute; left: 0%; top: 20px; font-size: 12px;"">–500 ms</div>
          <div style=""position: absolute; left: 50%; top: 20px; font-size: 12px; transform: translateX(-50%);"">0</div>
          <div style=""position: absolute; right: 0%; top: 20px; font-size: 12px;"">+500 ms</div>
        </div>

        <p>Press any key to continue.</p>
      </div>
    ","feedback_text","","","",""
"null","null","html-keyboard-response","162","119424","0.0-162.0","","<p style=""font-size: 48px;"">+</p>","iti","","","",""
"null","null","html-keyboard-response","163","119927","0.0-163.0","","<div class=""circle ready""></div>","ready","","","",""
"null","null","html-keyboard-response","164","121010","0.0-164.0","","","isi","","","",""
"null","null","html-keyboard-response","165","121512","0.0-165.0","","<div class=""circle set""></div>","set","500","","",""
"1107"," ","html-keyboard-response","166","122621","0.0-166.0","","","go","","1080","1107","27"
"null","null","html-keyboard-response","167","123123","0.0-167.0","","<div class=""circle go""></div>","feedback_circle","","","",""
"null","null","html-keyboard-response","168","123625","0.0-168.0","","
      <div style=""text-align:center;"">
        <p><strong>Interval you saw:</strong> 1080 ms</p>
        <p><strong>Interval you reported:</strong> 1107 ms</p>
        <p><strong>Error:</strong> +27 ms</p>

        <div style=""position: relative; width: 80%; height: 40px; margin: 40px auto;"">
          <div style=""height: 8px; background: linear-gradient(to right, #3498db, #ccc, #e74c3c); border-radius: 4px;""></div>
          <div style=""position: absolute; left: 52.7%; top: -6px; transform: translateX(-50%);"">
            <div style=""width: 14px; height: 14px; background: black; border-radius: 50%; border: 2px solid white;""></div>
          </div>
          <div style=""position: absolute; left: 0%; top: 20px; font-size: 12px;"">–500 ms</div>
          <div style=""position: absolute; left: 50%; top: 20px; font-size: 12px; transform: translateX(-50%);"">0</div>
          <div style=""position: absolute; right: 0%; top: 20px; font-size: 12px;"">+500 ms</div>
        </div>

        <p>Press any key to continue.</p>
      </div>
    ","feedback_text","","","",""
"null","null","html-keyboard-response","169","124627","0.0-169.0","","<p style=""font-size: 48px;"">+</p>","iti","","","",""
"null","null","html-keyboard-response","170","125131","0.0-170.0","","<div class=""circle ready""></div>","ready","","","",""
"null","null","html-keyboard-response","171","126094","0.0-171.0","","","isi","","","",""
"null","null","html-keyboard-response","172","126597","0.0-172.0","","<div class=""circle set""></div>","set","500","","",""
"1093"," ","html-keyboard-response","173","127691","0.0-173.0","","","go","","960","1093","133"
"null","null","html-keyboard-response","174","128193","0.0-174.0","","<div class=""circle go""></div>","feedback_circle","","","",""
"null","null","html-keyboard-response","175","128696","0.0-175.0","","
      <div style=""text-align:center;"">
        <p><strong>Interval you saw:</strong> 960 ms</p>
        <p><strong>Interval you reported:</strong> 1093 ms</p>
        <p><strong>Error:</strong> +133 ms</p>

        <div style=""position: relative; width: 80%; height: 40px; margin: 40px auto;"">
          <div style=""height: 8px; background: linear-gradient(to right, #3498db, #ccc, #e74c3c); border-radius: 4px;""></div>
          <div style=""position: absolute; left: 63.3%; top: -6px; transform: translateX(-50%);"">
            <div style=""width: 14px; height: 14px; background: black; border-radius: 50%; border: 2px solid white;""></div>
          </div>
          <div style=""position: absolute; left: 0%; top: 20px; font-size: 12px;"">–500 ms</div>
          <div style=""position: absolute; left: 50%; top: 20px; font-size: 12px; transform: translateX(-50%);"">0</div>
          <div style=""position: absolute; right: 0%; top: 20px; font-size: 12px;"">+500 ms</div>
        </div>

        <p>Press any key to continue.</p>
      </div>
    ","feedback_text","","","",""
"null","null","html-keyboard-response","176","129699","0.0-176.0","","<p style=""font-size: 48px;"">+</p>","iti","","","",""
"null","null","html-keyboard-response","177","130202","0.0-177.0","","<div class=""circle ready""></div>","ready","","","",""
"null","null","html-keyboard-response","178","131166","0.0-178.0","","","isi","","","",""
"null","null","html-keyboard-response","179","131669","0.0-179.0","","<div class=""circle set""></div>","set","500","","",""
"1251"," ","html-keyboard-response","180","132922","0.0-180.0","","","go","","960","1251","291"
"null","null","html-keyboard-response","181","133425","0.0-181.0","","<div class=""circle go""></div>","feedback_circle","","","",""
"null","null","html-keyboard-response","182","133927","0.0-182.0","","
      <div style=""text-align:center;"">
        <p><strong>Interval you saw:</strong> 960 ms</p>
        <p><strong>Interval you reported:</strong> 1251 ms</p>
        <p><strong>Error:</strong> +291 ms</p>

        <div style=""position: relative; width: 80%; height: 40px; margin: 40px auto;"">
          <div style=""height: 8px; background: linear-gradient(to right, #3498db, #ccc, #e74c3c); border-radius: 4px;""></div>
          <div style=""position: absolute; left: 79.10000000000001%; top: -6px; transform: translateX(-50%);"">
            <div style=""width: 14px; height: 14px; background: black; border-radius: 50%; border: 2px solid white;""></div>
          </div>
          <div style=""position: absolute; left: 0%; top: 20px; font-size: 12px;"">–500 ms</div>
          <div style=""position: absolute; left: 50%; top: 20px; font-size: 12px; transform: translateX(-50%);"">0</div>
          <div style=""position: absolute; right: 0%; top: 20px; font-size: 12px;"">+500 ms</div>
        </div>

        <p>Press any key to continue.</p>
      </div>
    ","feedback_text","","","",""
"null","null","html-keyboard-response","183","134930","0.0-183.0","","<p style=""font-size: 48px;"">+</p>","iti","","","",""
"null","null","html-keyboard-response","184","135433","0.0-184.0","","<div class=""circle ready""></div>","ready","","","",""
"null","null","html-keyboard-response","185","136637","0.0-185.0","","","isi","","","",""
"null","null","html-keyboard-response","186","137141","0.0-186.0","","<div class=""circle set""></div>","set","500","","",""
"1055"," ","html-keyboard-response","187","138198","0.0-187.0","","","go","","1200","1055","-145"
"null","null","html-keyboard-response","188","138700","0.0-188.0","","<div class=""circle go""></div>","feedback_circle","","","",""
"null","null","html-keyboard-response","189","139203","0.0-189.0","","
      <div style=""text-align:center;"">
        <p><strong>Interval you saw:</strong> 1200 ms</p>
        <p><strong>Interval you reported:</strong> 1055 ms</p>
        <p><strong>Error:</strong> -145 ms</p>

        <div style=""position: relative; width: 80%; height: 40px; margin: 40px auto;"">
          <div style=""height: 8px; background: linear-gradient(to right, #3498db, #ccc, #e74c3c); border-radius: 4px;""></div>
          <div style=""position: absolute; left: 35.5%; top: -6px; transform: translateX(-50%);"">
            <div style=""width: 14px; height: 14px; background: black; border-radius: 50%; border: 2px solid white;""></div>
          </div>
          <div style=""position: absolute; left: 0%; top: 20px; font-size: 12px;"">–500 ms</div>
          <div style=""position: absolute; left: 50%; top: 20px; font-size: 12px; transform: translateX(-50%);"">0</div>
          <div style=""position: absolute; right: 0%; top: 20px; font-size: 12px;"">+500 ms</div>
        </div>

        <p>Press any key to continue.</p>
      </div>
    ","feedback_text","","","",""
"null","null","html-keyboard-response","190","140205","0.0-190.0","","<p style=""font-size: 48px;"">+</p>","iti","","","",""
"null","null","html-keyboard-response","191","140709","0.0-191.0","","<div class=""circle ready""></div>","ready","","","",""
"null","null","html-keyboard-response","192","141913","0.0-192.0","","","isi","","","",""
"null","null","html-keyboard-response","193","142416","0.0-193.0","","<div class=""circle set""></div>","set","500","","",""
"1258"," ","html-keyboard-response","194","143676","0.0-194.0","","","go","","1200","1258","58"
"null","null","html-keyboard-response","195","144178","0.0-195.0","","<div class=""circle go""></div>","feedback_circle","","","",""
"null","null","html-keyboard-response","196","144681","0.0-196.0","","
      <div style=""text-align:center;"">
        <p><strong>Interval you saw:</strong> 1200 ms</p>
        <p><strong>Interval you reported:</strong> 1258 ms</p>
        <p><strong>Error:</strong> +58 ms</p>

        <div style=""position: relative; width: 80%; height: 40px; margin: 40px auto;"">
          <div style=""height: 8px; background: linear-gradient(to right, #3498db, #ccc, #e74c3c); border-radius: 4px;""></div>
          <div style=""position: absolute; left: 55.800000000000004%; top: -6px; transform: translateX(-50%);"">
            <div style=""width: 14px; height: 14px; background: black; border-radius: 50%; border: 2px solid white;""></div>
          </div>
          <div style=""position: absolute; left: 0%; top: 20px; font-size: 12px;"">–500 ms</div>
          <div style=""position: absolute; left: 50%; top: 20px; font-size: 12px; transform: translateX(-50%);"">0</div>
          <div style=""position: absolute; right: 0%; top: 20px; font-size: 12px;"">+500 ms</div>
        </div>

        <p>Press any key to continue.</p>
      </div>
    ","feedback_text","","","",""
"null","null","html-keyboard-response","197","145683","0.0-197.0","","<p style=""font-size: 48px;"">+</p>","iti","","","",""
"null","null","html-keyboard-response","198","146187","0.0-198.0","","<div class=""circle ready""></div>","ready","","","",""
"null","null","html-keyboard-response","199","147270","0.0-199.0","","","isi","","","",""
"null","null","html-keyboard-response","200","147773","0.0-200.0","","<div class=""circle set""></div>","set","500","","",""
"1165"," ","html-keyboard-response","201","148939","0.0-201.0","","","go","","1080","1165","85"
"null","null","html-keyboard-response","202","149442","0.0-202.0","","<div class=""circle go""></div>","feedback_circle","","","",""
"null","null","html-keyboard-response","203","149944","0.0-203.0","","
      <div style=""text-align:center;"">
        <p><strong>Interval you saw:</strong> 1080 ms</p>
        <p><strong>Interval you reported:</strong> 1165 ms</p>
        <p><strong>Error:</strong> +85 ms</p>

        <div style=""position: relative; width: 80%; height: 40px; margin: 40px auto;"">
          <div style=""height: 8px; background: linear-gradient(to right, #3498db, #ccc, #e74c3c); border-radius: 4px;""></div>
          <div style=""position: absolute; left: 58.5%; top: -6px; transform: translateX(-50%);"">
            <div style=""width: 14px; height: 14px; background: black; border-radius: 50%; border: 2px solid white;""></div>
          </div>
          <div style=""position: absolute; left: 0%; top: 20px; font-size: 12px;"">–500 ms</div>
          <div style=""position: absolute; left: 50%; top: 20px; font-size: 12px; transform: translateX(-50%);"">0</div>
          <div style=""position: absolute; right: 0%; top: 20px; font-size: 12px;"">+500 ms</div>
        </div>

        <p>Press any key to continue.</p>
      </div>
    ","feedback_text","","","",""
"null","null","html-keyboard-response","204","150946","0.0-204.0","","<p style=""font-size: 48px;"">+</p>","iti","","","",""
"null","null","html-keyboard-response","205","151449","0.0-205.0","","<div class=""circle ready""></div>","ready","","","",""
"null","null","html-keyboard-response","206","152593","0.0-206.0","","","isi","","","",""
"null","null","html-keyboard-response","207","153096","0.0-207.0","","<div class=""circle set""></div>","set","500","","",""
"1056"," ","html-keyboard-response","208","154154","0.0-208.0","","","go","","1140","1056","-84"
"null","null","html-keyboard-response","209","154656","0.0-209.0","","<div class=""circle go""></div>","feedback_circle","","","",""
"null","null","html-keyboard-response","210","155158","0.0-210.0","","
      <div style=""text-align:center;"">
        <p><strong>Interval you saw:</strong> 1140 ms</p>
        <p><strong>Interval you reported:</strong> 1056 ms</p>
        <p><strong>Error:</strong> -84 ms</p>

        <div style=""position: relative; width: 80%; height: 40px; margin: 40px auto;"">
          <div style=""height: 8px; background: linear-gradient(to right, #3498db, #ccc, #e74c3c); border-radius: 4px;""></div>
          <div style=""position: absolute; left: 41.6%; top: -6px; transform: translateX(-50%);"">
            <div style=""width: 14px; height: 14px; background: black; border-radius: 50%; border: 2px solid white;""></div>
          </div>
          <div style=""position: absolute; left: 0%; top: 20px; font-size: 12px;"">–500 ms</div>
          <div style=""position: absolute; left: 50%; top: 20px; font-size: 12px; transform: translateX(-50%);"">0</div>
          <div style=""position: absolute; right: 0%; top: 20px; font-size: 12px;"">+500 ms</div>
        </div>

        <p>Press any key to continue.</p>
      </div>
    ","feedback_text","","","",""
"null","null","html-keyboard-response","211","156159","0.0-211.0","","<p style=""font-size: 48px;"">+</p>","iti","","","",""
"null","null","html-keyboard-response","212","156661","0.0-212.0","","<div class=""circle ready""></div>","ready","","","",""
"null","null","html-keyboard-response","213","157574","0.0-213.0","","","isi","","","",""
"null","null","html-keyboard-response","214","158077","0.0-214.0","","<div class=""circle set""></div>","set","500","","",""
"995"," ","html-keyboard-response","215","159074","0.0-215.0","","","go","","910","995","85"
"null","null","html-keyboard-response","216","159576","0.0-216.0","","<div class=""circle go""></div>","feedback_circle","","","",""
"null","null","html-keyboard-response","217","160080","0.0-217.0","","
      <div style=""text-align:center;"">
        <p><strong>Interval you saw:</strong> 910 ms</p>
        <p><strong>Interval you reported:</strong> 995 ms</p>
        <p><strong>Error:</strong> +85 ms</p>

        <div style=""position: relative; width: 80%; height: 40px; margin: 40px auto;"">
          <div style=""height: 8px; background: linear-gradient(to right, #3498db, #ccc, #e74c3c); border-radius: 4px;""></div>
          <div style=""position: absolute; left: 58.5%; top: -6px; transform: translateX(-50%);"">
            <div style=""width: 14px; height: 14px; background: black; border-radius: 50%; border: 2px solid white;""></div>
          </div>
          <div style=""position: absolute; left: 0%; top: 20px; font-size: 12px;"">–500 ms</div>
          <div style=""position: absolute; left: 50%; top: 20px; font-size: 12px; transform: translateX(-50%);"">0</div>
          <div style=""position: absolute; right: 0%; top: 20px; font-size: 12px;"">+500 ms</div>
        </div>

        <p>Press any key to continue.</p>
      </div>
    ","feedback_text","","","",""
"null","null","html-keyboard-response","218","161083","0.0-218.0","","<p style=""font-size: 48px;"">+</p>","iti","","","",""
"null","null","html-keyboard-response","219","161587","0.0-219.0","","<div class=""circle ready""></div>","ready","","","",""
"null","null","html-keyboard-response","220","162789","0.0-220.0","","","isi","","","",""
"null","null","html-keyboard-response","221","163292","0.0-221.0","","<div class=""circle set""></div>","set","500","","",""
"1051"," ","html-keyboard-response","222","164345","0.0-222.0","","","go","","1200","1051","-149"
"null","null","html-keyboard-response","223","164847","0.0-223.0","","<div class=""circle go""></div>","feedback_circle","","","",""
"null","null","html-keyboard-response","224","165350","0.0-224.0","","
      <div style=""text-align:center;"">
        <p><strong>Interval you saw:</strong> 1200 ms</p>
        <p><strong>Interval you reported:</strong> 1051 ms</p>
        <p><strong>Error:</strong> -149 ms</p>

        <div style=""position: relative; width: 80%; height: 40px; margin: 40px auto;"">
          <div style=""height: 8px; background: linear-gradient(to right, #3498db, #ccc, #e74c3c); border-radius: 4px;""></div>
          <div style=""position: absolute; left: 35.099999999999994%; top: -6px; transform: translateX(-50%);"">
            <div style=""width: 14px; height: 14px; background: black; border-radius: 50%; border: 2px solid white;""></div>
          </div>
          <div style=""position: absolute; left: 0%; top: 20px; font-size: 12px;"">–500 ms</div>
          <div style=""position: absolute; left: 50%; top: 20px; font-size: 12px; transform: translateX(-50%);"">0</div>
          <div style=""position: absolute; right: 0%; top: 20px; font-size: 12px;"">+500 ms</div>
        </div>

        <p>Press any key to continue.</p>
      </div>
    ","feedback_text","","","",""
"null","null","html-keyboard-response","225","166353","0.0-225.0","","<p style=""font-size: 48px;"">+</p>","iti","","","",""
"null","null","html-keyboard-response","226","166857","0.0-226.0","","<div class=""circle ready""></div>","ready","","","",""
"null","null","html-keyboard-response","227","168059","0.0-227.0","","","isi","","","",""
"null","null","html-keyboard-response","228","168562","0.0-228.0","","<div class=""circle set""></div>","set","500","","",""
"1121"," ","html-keyboard-response","229","169684","0.0-229.0","","","go","","1200","1121","-79"
"null","null","html-keyboard-response","230","170186","0.0-230.0","","<div class=""circle go""></div>","feedback_circle","","","",""
"null","null","html-keyboard-response","231","170689","0.0-231.0","","
      <div style=""text-align:center;"">
        <p><strong>Interval you saw:</strong> 1200 ms</p>
        <p><strong>Interval you reported:</strong> 1121 ms</p>
        <p><strong>Error:</strong> -79 ms</p>

        <div style=""position: relative; width: 80%; height: 40px; margin: 40px auto;"">
          <div style=""height: 8px; background: linear-gradient(to right, #3498db, #ccc, #e74c3c); border-radius: 4px;""></div>
          <div style=""position: absolute; left: 42.1%; top: -6px; transform: translateX(-50%);"">
            <div style=""width: 14px; height: 14px; background: black; border-radius: 50%; border: 2px solid white;""></div>
          </div>
          <div style=""position: absolute; left: 0%; top: 20px; font-size: 12px;"">–500 ms</div>
          <div style=""position: absolute; left: 50%; top: 20px; font-size: 12px; transform: translateX(-50%);"">0</div>
          <div style=""position: absolute; right: 0%; top: 20px; font-size: 12px;"">+500 ms</div>
        </div>

        <p>Press any key to continue.</p>
      </div>
    ","feedback_text","","","",""
"null","null","html-keyboard-response","232","171692","0.0-232.0","","<p style=""font-size: 48px;"">+</p>","iti","","","",""
"null","null","html-keyboard-response","233","172195","0.0-233.0","","<div class=""circle ready""></div>","ready","","","",""
"null","null","html-keyboard-response","234","173278","0.0-234.0","","","isi","","","",""
"null","null","html-keyboard-response","235","173781","0.0-235.0","","<div class=""circle set""></div>","set","500","","",""
"1108"," ","html-keyboard-response","236","174890","0.0-236.0","","","go","","1080","1108","28"
"null","null","html-keyboard-response","237","175392","0.0-237.0","","<div class=""circle go""></div>","feedback_circle","","","",""
"null","null","html-keyboard-response","238","175895","0.0-238.0","","
      <div style=""text-align:center;"">
        <p><strong>Interval you saw:</strong> 1080 ms</p>
        <p><strong>Interval you reported:</strong> 1108 ms</p>
        <p><strong>Error:</strong> +28 ms</p>

        <div style=""position: relative; width: 80%; height: 40px; margin: 40px auto;"">
          <div style=""height: 8px; background: linear-gradient(to right, #3498db, #ccc, #e74c3c); border-radius: 4px;""></div>
          <div style=""position: absolute; left: 52.800000000000004%; top: -6px; transform: translateX(-50%);"">
            <div style=""width: 14px; height: 14px; background: black; border-radius: 50%; border: 2px solid white;""></div>
          </div>
          <div style=""position: absolute; left: 0%; top: 20px; font-size: 12px;"">–500 ms</div>
          <div style=""position: absolute; left: 50%; top: 20px; font-size: 12px; transform: translateX(-50%);"">0</div>
          <div style=""position: absolute; right: 0%; top: 20px; font-size: 12px;"">+500 ms</div>
        </div>

        <p>Press any key to continue.</p>
      </div>
    ","feedback_text","","","",""
"null","null","html-keyboard-response","239","176898","0.0-239.0","","<p style=""font-size: 48px;"">+</p>","iti","","","",""
"null","null","html-keyboard-response","240","177401","0.0-240.0","","<div class=""circle ready""></div>","ready","","","",""
"null","null","html-keyboard-response","241","178424","0.0-241.0","","","isi","","","",""
"null","null","html-keyboard-response","242","178927","0.0-242.0","","<div class=""circle set""></div>","set","500","","",""
"1204"," ","html-keyboard-response","243","180132","0.0-243.0","","","go","","1020","1204","184"
"null","null","html-keyboard-response","244","180634","0.0-244.0","","<div class=""circle go""></div>","feedback_circle","","","",""
"null","null","html-keyboard-response","245","181138","0.0-245.0","","
      <div style=""text-align:center;"">
        <p><strong>Interval you saw:</strong> 1020 ms</p>
        <p><strong>Interval you reported:</strong> 1204 ms</p>
        <p><strong>Error:</strong> +184 ms</p>

        <div style=""position: relative; width: 80%; height: 40px; margin: 40px auto;"">
          <div style=""height: 8px; background: linear-gradient(to right, #3498db, #ccc, #e74c3c); border-radius: 4px;""></div>
          <div style=""position: absolute; left: 68.4%; top: -6px; transform: translateX(-50%);"">
            <div style=""width: 14px; height: 14px; background: black; border-radius: 50%; border: 2px solid white;""></div>
          </div>
          <div style=""position: absolute; left: 0%; top: 20px; font-size: 12px;"">–500 ms</div>
          <div style=""position: absolute; left: 50%; top: 20px; font-size: 12px; transform: translateX(-50%);"">0</div>
          <div style=""position: absolute; right: 0%; top: 20px; font-size: 12px;"">+500 ms</div>
        </div>

        <p>Press any key to continue.</p>
      </div>
    ","feedback_text","","","",""
"null","null","html-keyboard-response","246","182141","0.0-246.0","","<p style=""font-size: 48px;"">+</p>","iti","","","",""
"null","null","html-keyboard-response","247","182644","0.0-247.0","","<div class=""circle ready""></div>","ready","","","",""
"null","null","html-keyboard-response","248","183497","0.0-248.0","","","isi","","","",""
"null","null","html-keyboard-response","249","184000","0.0-249.0","","<div class=""circle set""></div>","set","500","","",""
"957"," ","html-keyboard-response","250","184958","0.0-250.0","","","go","","850","957","107"
"null","null","html-keyboard-response","251","185460","0.0-251.0","","<div class=""circle go""></div>","feedback_circle","","","",""
"null","null","html-keyboard-response","252","185964","0.0-252.0","","
      <div style=""text-align:center;"">
        <p><strong>Interval you saw:</strong> 850 ms</p>
        <p><strong>Interval you reported:</strong> 957 ms</p>
        <p><strong>Error:</strong> +107 ms</p>

        <div style=""position: relative; width: 80%; height: 40px; margin: 40px auto;"">
          <div style=""height: 8px; background: linear-gradient(to right, #3498db, #ccc, #e74c3c); border-radius: 4px;""></div>
          <div style=""position: absolute; left: 60.699999999999996%; top: -6px; transform: translateX(-50%);"">
            <div style=""width: 14px; height: 14px; background: black; border-radius: 50%; border: 2px solid white;""></div>
          </div>
          <div style=""position: absolute; left: 0%; top: 20px; font-size: 12px;"">–500 ms</div>
          <div style=""position: absolute; left: 50%; top: 20px; font-size: 12px; transform: translateX(-50%);"">0</div>
          <div style=""position: absolute; right: 0%; top: 20px; font-size: 12px;"">+500 ms</div>
        </div>

        <p>Press any key to continue.</p>
      </div>
    ","feedback_text","","","",""
"null","null","html-keyboard-response","253","186967","0.0-253.0","","<p style=""font-size: 48px;"">+</p>","iti","","","",""
"null","null","html-keyboard-response","254","187469","0.0-254.0","","<div class=""circle ready""></div>","ready","","","",""
"null","null","html-keyboard-response","255","188382","0.0-255.0","","","isi","","","",""
"null","null","html-keyboard-response","256","188885","0.0-256.0","","<div class=""circle set""></div>","set","500","","",""
"864"," ","html-keyboard-response","257","189750","0.0-257.0","","","go","","910","864","-46"
"null","null","html-keyboard-response","258","190252","0.0-258.0","","<div class=""circle go""></div>","feedback_circle","","","",""
"null","null","html-keyboard-response","259","190755","0.0-259.0","","
      <div style=""text-align:center;"">
        <p><strong>Interval you saw:</strong> 910 ms</p>
        <p><strong>Interval you reported:</strong> 864 ms</p>
        <p><strong>Error:</strong> -46 ms</p>

        <div style=""position: relative; width: 80%; height: 40px; margin: 40px auto;"">
          <div style=""height: 8px; background: linear-gradient(to right, #3498db, #ccc, #e74c3c); border-radius: 4px;""></div>
          <div style=""position: absolute; left: 45.4%; top: -6px; transform: translateX(-50%);"">
            <div style=""width: 14px; height: 14px; background: black; border-radius: 50%; border: 2px solid white;""></div>
          </div>
          <div style=""position: absolute; left: 0%; top: 20px; font-size: 12px;"">–500 ms</div>
          <div style=""position: absolute; left: 50%; top: 20px; font-size: 12px; transform: translateX(-50%);"">0</div>
          <div style=""position: absolute; right: 0%; top: 20px; font-size: 12px;"">+500 ms</div>
        </div>

        <p>Press any key to continue.</p>
      </div>
    ","feedback_text","","","",""
"null","null","html-keyboard-response","260","191756","0.0-260.0","","<p style=""font-size: 48px;"">+</p>","iti","","","",""
"null","null","html-keyboard-response","261","192259","0.0-261.0","","<div class=""circle ready""></div>","ready","","","",""
"null","null","html-keyboard-response","262","193461","0.0-262.0","","","isi","","","",""
"null","null","html-keyboard-response","263","193964","0.0-263.0","","<div class=""circle set""></div>","set","500","","",""
"1192"," ","html-keyboard-response","264","195156","0.0-264.0","","","go","","1200","1192","-8"
"null","null","html-keyboard-response","265","195658","0.0-265.0","","<div class=""circle go""></div>","feedback_circle","","","",""
"null","null","html-keyboard-response","266","196161","0.0-266.0","","
      <div style=""text-align:center;"">
        <p><strong>Interval you saw:</strong> 1200 ms</p>
        <p><strong>Interval you reported:</strong> 1192 ms</p>
        <p><strong>Error:</strong> -8 ms</p>

        <div style=""position: relative; width: 80%; height: 40px; margin: 40px auto;"">
          <div style=""height: 8px; background: linear-gradient(to right, #3498db, #ccc, #e74c3c); border-radius: 4px;""></div>
          <div style=""position: absolute; left: 49.2%; top: -6px; transform: translateX(-50%);"">
            <div style=""width: 14px; height: 14px; background: black; border-radius: 50%; border: 2px solid white;""></div>
          </div>
          <div style=""position: absolute; left: 0%; top: 20px; font-size: 12px;"">–500 ms</div>
          <div style=""position: absolute; left: 50%; top: 20px; font-size: 12px; transform: translateX(-50%);"">0</div>
          <div style=""position: absolute; right: 0%; top: 20px; font-size: 12px;"">+500 ms</div>
        </div>

        <p>Press any key to continue.</p>
      </div>
    ","feedback_text","","","",""
"null","null","html-keyboard-response","267","197163","0.0-267.0","","<p style=""font-size: 48px;"">+</p>","iti","","","",""
"null","null","html-keyboard-response","268","197666","0.0-268.0","","<div class=""circle ready""></div>","ready","","","",""
"null","null","html-keyboard-response","269","198519","0.0-269.0","","","isi","","","",""
"null","null","html-keyboard-response","270","199022","0.0-270.0","","<div class=""circle set""></div>","set","500","","",""
"885"," ","html-keyboard-response","271","199908","0.0-271.0","","","go","","850","885","35"
"null","null","html-keyboard-response","272","200410","0.0-272.0","","<div class=""circle go""></div>","feedback_circle","","","",""
"null","null","html-keyboard-response","273","200913","0.0-273.0","","
      <div style=""text-align:center;"">
        <p><strong>Interval you saw:</strong> 850 ms</p>
        <p><strong>Interval you reported:</strong> 885 ms</p>
        <p><strong>Error:</strong> +35 ms</p>

        <div style=""position: relative; width: 80%; height: 40px; margin: 40px auto;"">
          <div style=""height: 8px; background: linear-gradient(to right, #3498db, #ccc, #e74c3c); border-radius: 4px;""></div>
          <div style=""position: absolute; left: 53.5%; top: -6px; transform: translateX(-50%);"">
            <div style=""width: 14px; height: 14px; background: black; border-radius: 50%; border: 2px solid white;""></div>
          </div>
          <div style=""position: absolute; left: 0%; top: 20px; font-size: 12px;"">–500 ms</div>
          <div style=""position: absolute; left: 50%; top: 20px; font-size: 12px; transform: translateX(-50%);"">0</div>
          <div style=""position: absolute; right: 0%; top: 20px; font-size: 12px;"">+500 ms</div>
        </div>

        <p>Press any key to continue.</p>
      </div>
    ","feedback_text","","","",""
"null","null","html-keyboard-response","274","201916","0.0-274.0","","<p style=""font-size: 48px;"">+</p>","iti","","","",""
"null","null","html-keyboard-response","275","202420","0.0-275.0","","<div class=""circle ready""></div>","ready","","","",""
"null","null","html-keyboard-response","276","203383","0.0-276.0","","","isi","","","",""
"null","null","html-keyboard-response","277","203886","0.0-277.0","","<div class=""circle set""></div>","set","500","","",""
"1210"," ","html-keyboard-response","278","205097","0.0-278.0","","","go","","960","1210","250"
"null","null","html-keyboard-response","279","205598","0.0-279.0","","<div class=""circle go""></div>","feedback_circle","","","",""
"null","null","html-keyboard-response","280","206102","0.0-280.0","","
      <div style=""text-align:center;"">
        <p><strong>Interval you saw:</strong> 960 ms</p>
        <p><strong>Interval you reported:</strong> 1210 ms</p>
        <p><strong>Error:</strong> +250 ms</p>

        <div style=""position: relative; width: 80%; height: 40px; margin: 40px auto;"">
          <div style=""height: 8px; background: linear-gradient(to right, #3498db, #ccc, #e74c3c); border-radius: 4px;""></div>
          <div style=""position: absolute; left: 75%; top: -6px; transform: translateX(-50%);"">
            <div style=""width: 14px; height: 14px; background: black; border-radius: 50%; border: 2px solid white;""></div>
          </div>
          <div style=""position: absolute; left: 0%; top: 20px; font-size: 12px;"">–500 ms</div>
          <div style=""position: absolute; left: 50%; top: 20px; font-size: 12px; transform: translateX(-50%);"">0</div>
          <div style=""position: absolute; right: 0%; top: 20px; font-size: 12px;"">+500 ms</div>
        </div>

        <p>Press any key to continue.</p>
      </div>
    ","feedback_text","","","",""
"null","null","html-keyboard-response","281","207105","0.0-281.0","","<p style=""font-size: 48px;"">+</p>","iti","","","",""
"null","null","html-keyboard-response","282","207608","0.0-282.0","","<div class=""circle ready""></div>","ready","","","",""
"null","null","html-keyboard-response","283","208462","0.0-283.0","","","isi","","","",""
"null","null","html-keyboard-response","284","208964","0.0-284.0","","<div class=""circle set""></div>","set","500","","",""
"890"," ","html-keyboard-response","285","209856","0.0-285.0","","","go","","850","890","40"
"null","null","html-keyboard-response","286","210357","0.0-286.0","","<div class=""circle go""></div>","feedback_circle","","","",""
"null","null","html-keyboard-response","287","210860","0.0-287.0","","
      <div style=""text-align:center;"">
        <p><strong>Interval you saw:</strong> 850 ms</p>
        <p><strong>Interval you reported:</strong> 890 ms</p>
        <p><strong>Error:</strong> +40 ms</p>

        <div style=""position: relative; width: 80%; height: 40px; margin: 40px auto;"">
          <div style=""height: 8px; background: linear-gradient(to right, #3498db, #ccc, #e74c3c); border-radius: 4px;""></div>
          <div style=""position: absolute; left: 54%; top: -6px; transform: translateX(-50%);"">
            <div style=""width: 14px; height: 14px; background: black; border-radius: 50%; border: 2px solid white;""></div>
          </div>
          <div style=""position: absolute; left: 0%; top: 20px; font-size: 12px;"">–500 ms</div>
          <div style=""position: absolute; left: 50%; top: 20px; font-size: 12px; transform: translateX(-50%);"">0</div>
          <div style=""position: absolute; right: 0%; top: 20px; font-size: 12px;"">+500 ms</div>
        </div>

        <p>Press any key to continue.</p>
      </div>
    ","feedback_text","","","",""
"null","null","html-keyboard-response","288","211863","0.0-288.0","","<p style=""font-size: 48px;"">+</p>","iti","","","",""
"null","null","html-keyboard-response","289","212366","0.0-289.0","","<div class=""circle ready""></div>","ready","","","",""
"null","null","html-keyboard-response","290","213509","0.0-290.0","","","isi","","","",""
"null","null","html-keyboard-response","291","214012","0.0-291.0","","<div class=""circle set""></div>","set","500","","",""
"984"," ","html-keyboard-response","292","214997","0.0-292.0","","","go","","1140","984","-156"
"null","null","html-keyboard-response","293","215499","0.0-293.0","","<div class=""circle go""></div>","feedback_circle","","","",""
"null","null","html-keyboard-response","294","216002","0.0-294.0","","
      <div style=""text-align:center;"">
        <p><strong>Interval you saw:</strong> 1140 ms</p>
        <p><strong>Interval you reported:</strong> 984 ms</p>
        <p><strong>Error:</strong> -156 ms</p>

        <div style=""position: relative; width: 80%; height: 40px; margin: 40px auto;"">
          <div style=""height: 8px; background: linear-gradient(to right, #3498db, #ccc, #e74c3c); border-radius: 4px;""></div>
          <div style=""position: absolute; left: 34.4%; top: -6px; transform: translateX(-50%);"">
            <div style=""width: 14px; height: 14px; background: black; border-radius: 50%; border: 2px solid white;""></div>
          </div>
          <div style=""position: absolute; left: 0%; top: 20px; font-size: 12px;"">–500 ms</div>
          <div style=""position: absolute; left: 50%; top: 20px; font-size: 12px; transform: translateX(-50%);"">0</div>
          <div style=""position: absolute; right: 0%; top: 20px; font-size: 12px;"">+500 ms</div>
        </div>

        <p>Press any key to continue.</p>
      </div>
    ","feedback_text","","","",""
"null","null","html-keyboard-response","295","217005","0.0-295.0","","<p style=""font-size: 48px;"">+</p>","iti","","","",""
"null","null","html-keyboard-response","296","217507","0.0-296.0","","<div class=""circle ready""></div>","ready","","","",""
"null","null","html-keyboard-response","297","218651","0.0-297.0","","","isi","","","",""
"null","null","html-keyboard-response","298","219153","0.0-298.0","","<div class=""circle set""></div>","set","500","","",""
"1073"," ","html-keyboard-response","299","220228","0.0-299.0","","","go","","1140","1073","-67"
"null","null","html-keyboard-response","300","220730","0.0-300.0","","<div class=""circle go""></div>","feedback_circle","","","",""
"null","null","html-keyboard-response","301","221233","0.0-301.0","","
      <div style=""text-align:center;"">
        <p><strong>Interval you saw:</strong> 1140 ms</p>
        <p><strong>Interval you reported:</strong> 1073 ms</p>
        <p><strong>Error:</strong> -67 ms</p>

        <div style=""position: relative; width: 80%; height: 40px; margin: 40px auto;"">
          <div style=""height: 8px; background: linear-gradient(to right, #3498db, #ccc, #e74c3c); border-radius: 4px;""></div>
          <div style=""position: absolute; left: 43.3%; top: -6px; transform: translateX(-50%);"">
            <div style=""width: 14px; height: 14px; background: black; border-radius: 50%; border: 2px solid white;""></div>
          </div>
          <div style=""position: absolute; left: 0%; top: 20px; font-size: 12px;"">–500 ms</div>
          <div style=""position: absolute; left: 50%; top: 20px; font-size: 12px; transform: translateX(-50%);"">0</div>
          <div style=""position: absolute; right: 0%; top: 20px; font-size: 12px;"">+500 ms</div>
        </div>

        <p>Press any key to continue.</p>
      </div>
    ","feedback_text","","","",""
"null","null","html-keyboard-response","302","222236","0.0-302.0","","<p style=""font-size: 48px;"">+</p>","iti","","","",""
"null","null","html-keyboard-response","303","222739","0.0-303.0","","<div class=""circle ready""></div>","ready","","","",""
"null","null","html-keyboard-response","304","223592","0.0-304.0","","","isi","","","",""
"null","null","html-keyboard-response","305","224095","0.0-305.0","","<div class=""circle set""></div>","set","500","","",""
"1085"," ","html-keyboard-response","306","225182","0.0-306.0","","","go","","850","1085","235"
"null","null","html-keyboard-response","307","225684","0.0-307.0","","<div class=""circle go""></div>","feedback_circle","","","",""
"null","null","html-keyboard-response","308","226186","0.0-308.0","","
      <div style=""text-align:center;"">
        <p><strong>Interval you saw:</strong> 850 ms</p>
        <p><strong>Interval you reported:</strong> 1085 ms</p>
        <p><strong>Error:</strong> +235 ms</p>

        <div style=""position: relative; width: 80%; height: 40px; margin: 40px auto;"">
          <div style=""height: 8px; background: linear-gradient(to right, #3498db, #ccc, #e74c3c); border-radius: 4px;""></div>
          <div style=""position: absolute; left: 73.5%; top: -6px; transform: translateX(-50%);"">
            <div style=""width: 14px; height: 14px; background: black; border-radius: 50%; border: 2px solid white;""></div>
          </div>
          <div style=""position: absolute; left: 0%; top: 20px; font-size: 12px;"">–500 ms</div>
          <div style=""position: absolute; left: 50%; top: 20px; font-size: 12px; transform: translateX(-50%);"">0</div>
          <div style=""position: absolute; right: 0%; top: 20px; font-size: 12px;"">+500 ms</div>
        </div>

        <p>Press any key to continue.</p>
      </div>
    ","feedback_text","","","",""
"null","null","html-keyboard-response","309","227188","0.0-309.0","","<p style=""font-size: 48px;"">+</p>","iti","","","",""
"null","null","html-keyboard-response","310","227690","0.0-310.0","","<div class=""circle ready""></div>","ready","","","",""
"null","null","html-keyboard-response","311","228893","0.0-311.0","","","isi","","","",""
"null","null","html-keyboard-response","312","229396","0.0-312.0","","<div class=""circle set""></div>","set","500","","",""
"1099"," ","html-keyboard-response","313","230496","0.0-313.0","","","go","","1200","1099","-101"
"null","null","html-keyboard-response","314","230998","0.0-314.0","","<div class=""circle go""></div>","feedback_circle","","","",""
"null","null","html-keyboard-response","315","231501","0.0-315.0","","
      <div style=""text-align:center;"">
        <p><strong>Interval you saw:</strong> 1200 ms</p>
        <p><strong>Interval you reported:</strong> 1099 ms</p>
        <p><strong>Error:</strong> -101 ms</p>

        <div style=""position: relative; width: 80%; height: 40px; margin: 40px auto;"">
          <div style=""height: 8px; background: linear-gradient(to right, #3498db, #ccc, #e74c3c); border-radius: 4px;""></div>
          <div style=""position: absolute; left: 39.900000000000006%; top: -6px; transform: translateX(-50%);"">
            <div style=""width: 14px; height: 14px; background: black; border-radius: 50%; border: 2px solid white;""></div>
          </div>
          <div style=""position: absolute; left: 0%; top: 20px; font-size: 12px;"">–500 ms</div>
          <div style=""position: absolute; left: 50%; top: 20px; font-size: 12px; transform: translateX(-50%);"">0</div>
          <div style=""position: absolute; right: 0%; top: 20px; font-size: 12px;"">+500 ms</div>
        </div>

        <p>Press any key to continue.</p>
      </div>
    ","feedback_text","","","",""
"null","null","html-keyboard-response","316","232502","0.0-316.0","","<p style=""font-size: 48px;"">+</p>","iti","","","",""
"null","null","html-keyboard-response","317","233005","0.0-317.0","","<div class=""circle ready""></div>","ready","","","",""
"null","null","html-keyboard-response","318","234208","0.0-318.0","","","isi","","","",""
"null","null","html-keyboard-response","319","234711","0.0-319.0","","<div class=""circle set""></div>","set","500","","",""
"1134"," ","html-keyboard-response","320","235846","0.0-320.0","","","go","","1200","1134","-66"
"null","null","html-keyboard-response","321","236348","0.0-321.0","","<div class=""circle go""></div>","feedback_circle","","","",""
"null","null","html-keyboard-response","322","236850","0.0-322.0","","
      <div style=""text-align:center;"">
        <p><strong>Interval you saw:</strong> 1200 ms</p>
        <p><strong>Interval you reported:</strong> 1134 ms</p>
        <p><strong>Error:</strong> -66 ms</p>

        <div style=""position: relative; width: 80%; height: 40px; margin: 40px auto;"">
          <div style=""height: 8px; background: linear-gradient(to right, #3498db, #ccc, #e74c3c); border-radius: 4px;""></div>
          <div style=""position: absolute; left: 43.4%; top: -6px; transform: translateX(-50%);"">
            <div style=""width: 14px; height: 14px; background: black; border-radius: 50%; border: 2px solid white;""></div>
          </div>
          <div style=""position: absolute; left: 0%; top: 20px; font-size: 12px;"">–500 ms</div>
          <div style=""position: absolute; left: 50%; top: 20px; font-size: 12px; transform: translateX(-50%);"">0</div>
          <div style=""position: absolute; right: 0%; top: 20px; font-size: 12px;"">+500 ms</div>
        </div>

        <p>Press any key to continue.</p>
      </div>
    ","feedback_text","","","",""
"null","null","html-keyboard-response","323","237852","0.0-323.0","","<p style=""font-size: 48px;"">+</p>","iti","","","",""
"null","null","html-keyboard-response","324","238355","0.0-324.0","","<div class=""circle ready""></div>","ready","","","",""
"null","null","html-keyboard-response","325","239557","0.0-325.0","","","isi","","","",""
"null","null","html-keyboard-response","326","240060","0.0-326.0","","<div class=""circle set""></div>","set","500","","",""
"1147"," ","html-keyboard-response","327","241208","0.0-327.0","","","go","","1200","1147","-53"
"null","null","html-keyboard-response","328","241710","0.0-328.0","","<div class=""circle go""></div>","feedback_circle","","","",""
"null","null","html-keyboard-response","329","242213","0.0-329.0","","
      <div style=""text-align:center;"">
        <p><strong>Interval you saw:</strong> 1200 ms</p>
        <p><strong>Interval you reported:</strong> 1147 ms</p>
        <p><strong>Error:</strong> -53 ms</p>

        <div style=""position: relative; width: 80%; height: 40px; margin: 40px auto;"">
          <div style=""height: 8px; background: linear-gradient(to right, #3498db, #ccc, #e74c3c); border-radius: 4px;""></div>
          <div style=""position: absolute; left: 44.7%; top: -6px; transform: translateX(-50%);"">
            <div style=""width: 14px; height: 14px; background: black; border-radius: 50%; border: 2px solid white;""></div>
          </div>
          <div style=""position: absolute; left: 0%; top: 20px; font-size: 12px;"">–500 ms</div>
          <div style=""position: absolute; left: 50%; top: 20px; font-size: 12px; transform: translateX(-50%);"">0</div>
          <div style=""position: absolute; right: 0%; top: 20px; font-size: 12px;"">+500 ms</div>
        </div>

        <p>Press any key to continue.</p>
      </div>
    ","feedback_text","","","",""
"null","null","html-keyboard-response","330","243214","0.0-330.0","","<p style=""font-size: 48px;"">+</p>","iti","","","",""
"null","null","html-keyboard-response","331","243718","0.0-331.0","","<div class=""circle ready""></div>","ready","","","",""
"null","null","html-keyboard-response","332","244920","0.0-332.0","","","isi","","","",""
"null","null","html-keyboard-response","333","245423","0.0-333.0","","<div class=""circle set""></div>","set","500","","",""
"1244"," ","html-keyboard-response","334","246668","0.0-334.0","","","go","","1200","1244","44"
"null","null","html-keyboard-response","335","247170","0.0-335.0","","<div class=""circle go""></div>","feedback_circle","","","",""
"null","null","html-keyboard-response","336","247672","0.0-336.0","","
      <div style=""text-align:center;"">
        <p><strong>Interval you saw:</strong> 1200 ms</p>
        <p><strong>Interval you reported:</strong> 1244 ms</p>
        <p><strong>Error:</strong> +44 ms</p>

        <div style=""position: relative; width: 80%; height: 40px; margin: 40px auto;"">
          <div style=""height: 8px; background: linear-gradient(to right, #3498db, #ccc, #e74c3c); border-radius: 4px;""></div>
          <div style=""position: absolute; left: 54.400000000000006%; top: -6px; transform: translateX(-50%);"">
            <div style=""width: 14px; height: 14px; background: black; border-radius: 50%; border: 2px solid white;""></div>
          </div>
          <div style=""position: absolute; left: 0%; top: 20px; font-size: 12px;"">–500 ms</div>
          <div style=""position: absolute; left: 50%; top: 20px; font-size: 12px; transform: translateX(-50%);"">0</div>
          <div style=""position: absolute; right: 0%; top: 20px; font-size: 12px;"">+500 ms</div>
        </div>

        <p>Press any key to continue.</p>
      </div>
    ","feedback_text","","","",""
"null","null","html-keyboard-response","337","248674","0.0-337.0","","<p style=""font-size: 48px;"">+</p>","iti","","","",""
"null","null","html-keyboard-response","338","249177","0.0-338.0","","<div class=""circle ready""></div>","ready","","","",""
"null","null","html-keyboard-response","339","250030","0.0-339.0","","","isi","","","",""
"null","null","html-keyboard-response","340","250533","0.0-340.0","","<div class=""circle set""></div>","set","500","","",""
"666"," ","html-keyboard-response","341","251200","0.0-341.0","","","go","","850","666","-184"
"null","null","html-keyboard-response","342","251702","0.0-342.0","","<div class=""circle go""></div>","feedback_circle","","","",""
"null","null","html-keyboard-response","343","252206","0.0-343.0","","
      <div style=""text-align:center;"">
        <p><strong>Interval you saw:</strong> 850 ms</p>
        <p><strong>Interval you reported:</strong> 666 ms</p>
        <p><strong>Error:</strong> -184 ms</p>

        <div style=""position: relative; width: 80%; height: 40px; margin: 40px auto;"">
          <div style=""height: 8px; background: linear-gradient(to right, #3498db, #ccc, #e74c3c); border-radius: 4px;""></div>
          <div style=""position: absolute; left: 31.6%; top: -6px; transform: translateX(-50%);"">
            <div style=""width: 14px; height: 14px; background: black; border-radius: 50%; border: 2px solid white;""></div>
          </div>
          <div style=""position: absolute; left: 0%; top: 20px; font-size: 12px;"">–500 ms</div>
          <div style=""position: absolute; left: 50%; top: 20px; font-size: 12px; transform: translateX(-50%);"">0</div>
          <div style=""position: absolute; right: 0%; top: 20px; font-size: 12px;"">+500 ms</div>
        </div>

        <p>Press any key to continue.</p>
      </div>
    ","feedback_text","","","",""
"null","null","html-keyboard-response","344","253209","0.0-344.0","","<p style=""font-size: 48px;"">+</p>","iti","","","",""
"null","null","html-keyboard-response","345","253713","0.0-345.0","","<div class=""circle ready""></div>","ready","","","",""
"null","null","html-keyboard-response","346","254676","0.0-346.0","","","isi","","","",""
"null","null","html-keyboard-response","347","255179","0.0-347.0","","<div class=""circle set""></div>","set","500","","",""
"1134"," ","html-keyboard-response","348","256314","0.0-348.0","","","go","","960","1134","174"
"null","null","html-keyboard-response","349","256816","0.0-349.0","","<div class=""circle go""></div>","feedback_circle","","","",""
"null","null","html-keyboard-response","350","257319","0.0-350.0","","
      <div style=""text-align:center;"">
        <p><strong>Interval you saw:</strong> 960 ms</p>
        <p><strong>Interval you reported:</strong> 1134 ms</p>
        <p><strong>Error:</strong> +174 ms</p>

        <div style=""position: relative; width: 80%; height: 40px; margin: 40px auto;"">
          <div style=""height: 8px; background: linear-gradient(to right, #3498db, #ccc, #e74c3c); border-radius: 4px;""></div>
          <div style=""position: absolute; left: 67.4%; top: -6px; transform: translateX(-50%);"">
            <div style=""width: 14px; height: 14px; background: black; border-radius: 50%; border: 2px solid white;""></div>
          </div>
          <div style=""position: absolute; left: 0%; top: 20px; font-size: 12px;"">–500 ms</div>
          <div style=""position: absolute; left: 50%; top: 20px; font-size: 12px; transform: translateX(-50%);"">0</div>
          <div style=""position: absolute; right: 0%; top: 20px; font-size: 12px;"">+500 ms</div>
        </div>

        <p>Press any key to continue.</p>
      </div>
    ","feedback_text","","","",""
"null","null","html-keyboard-response","351","258321","0.0-351.0","","<p style=""font-size: 48px;"">+</p>","iti","","","",""
"null","null","html-keyboard-response","352","258823","0.0-352.0","","<div class=""circle ready""></div>","ready","","","",""
"null","null","html-keyboard-response","353","260026","0.0-353.0","","","isi","","","",""
"null","null","html-keyboard-response","354","260529","0.0-354.0","","<div class=""circle set""></div>","set","500","","",""
"1255"," ","html-keyboard-response","355","261786","0.0-355.0","","","go","","1200","1255","55"
"null","null","html-keyboard-response","356","262287","0.0-356.0","","<div class=""circle go""></div>","feedback_circle","","","",""
"null","null","html-keyboard-response","357","262791","0.0-357.0","","
      <div style=""text-align:center;"">
        <p><strong>Interval you saw:</strong> 1200 ms</p>
        <p><strong>Interval you reported:</strong> 1255 ms</p>
        <p><strong>Error:</strong> +55 ms</p>

        <div style=""position: relative; width: 80%; height: 40px; margin: 40px auto;"">
          <div style=""height: 8px; background: linear-gradient(to right, #3498db, #ccc, #e74c3c); border-radius: 4px;""></div>
          <div style=""position: absolute; left: 55.50000000000001%; top: -6px; transform: translateX(-50%);"">
            <div style=""width: 14px; height: 14px; background: black; border-radius: 50%; border: 2px solid white;""></div>
          </div>
          <div style=""position: absolute; left: 0%; top: 20px; font-size: 12px;"">–500 ms</div>
          <div style=""position: absolute; left: 50%; top: 20px; font-size: 12px; transform: translateX(-50%);"">0</div>
          <div style=""position: absolute; right: 0%; top: 20px; font-size: 12px;"">+500 ms</div>
        </div>

        <p>Press any key to continue.</p>
      </div>
    ","feedback_text","","","",""
"null","null","html-keyboard-response","358","263792","0.0-358.0","","<p style=""font-size: 48px;"">+</p>","iti","","","",""
"null","null","html-keyboard-response","359","264296","0.0-359.0","","<div class=""circle ready""></div>","ready","","","",""
"null","null","html-keyboard-response","360","265208","0.0-360.0","","","isi","","","",""
"null","null","html-keyboard-response","361","265711","0.0-361.0","","<div class=""circle set""></div>","set","500","","",""
"1179"," ","html-keyboard-response","362","266892","0.0-362.0","","","go","","910","1179","269"
"null","null","html-keyboard-response","363","267393","0.0-363.0","","<div class=""circle go""></div>","feedback_circle","","","",""
"null","null","html-keyboard-response","364","267896","0.0-364.0","","
      <div style=""text-align:center;"">
        <p><strong>Interval you saw:</strong> 910 ms</p>
        <p><strong>Interval you reported:</strong> 1179 ms</p>
        <p><strong>Error:</strong> +269 ms</p>

        <div style=""position: relative; width: 80%; height: 40px; margin: 40px auto;"">
          <div style=""height: 8px; background: linear-gradient(to right, #3498db, #ccc, #e74c3c); border-radius: 4px;""></div>
          <div style=""position: absolute; left: 76.9%; top: -6px; transform: translateX(-50%);"">
            <div style=""width: 14px; height: 14px; background: black; border-radius: 50%; border: 2px solid white;""></div>
          </div>
          <div style=""position: absolute; left: 0%; top: 20px; font-size: 12px;"">–500 ms</div>
          <div style=""position: absolute; left: 50%; top: 20px; font-size: 12px; transform: translateX(-50%);"">0</div>
          <div style=""position: absolute; right: 0%; top: 20px; font-size: 12px;"">+500 ms</div>
        </div>

        <p>Press any key to continue.</p>
      </div>
    ","feedback_text","","","",""
"null","null","html-keyboard-response","365","268898","0.0-365.0","","<p style=""font-size: 48px;"">+</p>","iti","","","",""
"null","null","html-keyboard-response","366","269402","0.0-366.0","","<div class=""circle ready""></div>","ready","","","",""
"null","null","html-keyboard-response","367","270365","0.0-367.0","","","isi","","","",""
"null","null","html-keyboard-response","368","270867","0.0-368.0","","<div class=""circle set""></div>","set","500","","",""
"1065"," ","html-keyboard-response","369","271934","0.0-369.0","","","go","","960","1065","105"
"null","null","html-keyboard-response","370","272436","0.0-370.0","","<div class=""circle go""></div>","feedback_circle","","","",""
"null","null","html-keyboard-response","371","272939","0.0-371.0","","
      <div style=""text-align:center;"">
        <p><strong>Interval you saw:</strong> 960 ms</p>
        <p><strong>Interval you reported:</strong> 1065 ms</p>
        <p><strong>Error:</strong> +105 ms</p>

        <div style=""position: relative; width: 80%; height: 40px; margin: 40px auto;"">
          <div style=""height: 8px; background: linear-gradient(to right, #3498db, #ccc, #e74c3c); border-radius: 4px;""></div>
          <div style=""position: absolute; left: 60.5%; top: -6px; transform: translateX(-50%);"">
            <div style=""width: 14px; height: 14px; background: black; border-radius: 50%; border: 2px solid white;""></div>
          </div>
          <div style=""position: absolute; left: 0%; top: 20px; font-size: 12px;"">–500 ms</div>
          <div style=""position: absolute; left: 50%; top: 20px; font-size: 12px; transform: translateX(-50%);"">0</div>
          <div style=""position: absolute; right: 0%; top: 20px; font-size: 12px;"">+500 ms</div>
        </div>

        <p>Press any key to continue.</p>
      </div>
    ","feedback_text","","","",""
"null","null","html-keyboard-response","372","273941","0.0-372.0","","<p style=""font-size: 48px;"">+</p>","iti","","","",""
"null","null","html-keyboard-response","373","274445","0.0-373.0","","<div class=""circle ready""></div>","ready","","","",""
"null","null","html-keyboard-response","374","275527","0.0-374.0","","","isi","","","",""
"null","null","html-keyboard-response","375","276030","0.0-375.0","","<div class=""circle set""></div>","set","500","","",""
"1171"," ","html-keyboard-response","376","277202","0.0-376.0","","","go","","1080","1171","91"
"null","null","html-keyboard-response","377","277705","0.0-377.0","","<div class=""circle go""></div>","feedback_circle","","","",""
"null","null","html-keyboard-response","378","278207","0.0-378.0","","
