"rt","response","trial_type","trial_index","time_elapsed","internal_node_id","subject_ID","stimulus","phase","set_duration","target_interval","reproduced_interval","reproduction_error"
"1296","{""subject_id"":""adi""}","survey-text","0","1299","0.0-0.0","","","","","","",""
"3589"," ","html-keyboard-response","1","4892","0.0-1.0","","
      <p>Ready-Set-Go Task:</p>
      <ul style=""text-align:left; max-width:600px; margin:auto;"">
        <li>First, a <strong>red circle (""Ready"")</strong> appears</li>
        <li>Then, an <strong>orange circle (""Set"")</strong> appears after a delay</li>
        <li>You must <strong>press SPACE</strong> after an equal delay</li>
        <li>Then, a <strong>green circle (""Go"")</strong> appears</li>
        <li>You'll get feedback for the first 5 trials.</li>
      </ul>
      <p>Press any key to begin.</p>
    ","","","","",""
"null","null","html-keyboard-response","2","5394","0.0-2.0","","<div class=""circle ready""></div>","ready","","","",""
"null","null","html-keyboard-response","3","6357","0.0-3.0","","","isi","","","",""
"null","null","html-keyboard-response","4","6860","0.0-4.0","","<div class=""circle set""></div>","set","500","","",""
"946"," ","html-keyboard-response","5","7806","0.0-5.0","","","go","","960","946","-14"
"null","null","html-keyboard-response","6","8308","0.0-6.0","","<div class=""circle go""></div>","feedback_circle","","","",""
"null","null","html-keyboard-response","7","8811","0.0-7.0","","
      <div style=""text-align:center;"">
        
        <p style=""font-size: 16px; text-align: center;"">Trial 2 of 900</p>
        <p><strong>Error:</strong> -14 ms</p>

        <div style=""position: relative; width: 80%; height: 40px; margin: 40px auto;"">
          <div style=""height: 8px; background: linear-gradient(to right, #3498db, #ccc, #e74c3c); border-radius: 4px;""></div>
          <div style=""position: absolute; left: 48.6%; top: -6px; transform: translateX(-50%);"">
            <div style=""width: 14px; height: 14px; background: black; border-radius: 50%; border: 2px solid white;""></div>
          </div>
          <div style=""position: absolute; left: 0%; top: 20px; font-size: 12px;"">–500 ms</div>
          <div style=""position: absolute; left: 50%; top: 20px; font-size: 12px; transform: translateX(-50%);"">0</div>
          <div style=""position: absolute; right: 0%; top: 20px; font-size: 12px;"">+500 ms</div>
        </div>

        <p>Press any key to continue.</p>
      </div>
    ","feedback_text","","","",""
"null","null","html-keyboard-response","8","9813","0.0-8.0","","<p style=""font-size: 48px;"">+</p>","iti","","","",""
"null","null","html-keyboard-response","9","10316","0.0-9.0","","<div class=""circle ready""></div>","ready","","","",""
"null","null","html-keyboard-response","10","11398","0.0-10.0","","","isi","","","",""
"null","null","html-keyboard-response","11","11900","0.0-11.0","","<div class=""circle set""></div>","set","500","","",""
"929"," ","html-keyboard-response","12","12830","0.0-12.0","","","go","","1080","929","-151"
"null","null","html-keyboard-response","13","13333","0.0-13.0","","<div class=""circle go""></div>","feedback_circle","","","",""
"null","null","html-keyboard-response","14","13836","0.0-14.0","","
      <div style=""text-align:center;"">
        
        <p style=""font-size: 16px; text-align: center;"">Trial 3 of 900</p>
        <p><strong>Error:</strong> -151 ms</p>

        <div style=""position: relative; width: 80%; height: 40px; margin: 40px auto;"">
          <div style=""height: 8px; background: linear-gradient(to right, #3498db, #ccc, #e74c3c); border-radius: 4px;""></div>
          <div style=""position: absolute; left: 34.9%; top: -6px; transform: translateX(-50%);"">
            <div style=""width: 14px; height: 14px; background: black; border-radius: 50%; border: 2px solid white;""></div>
          </div>
          <div style=""position: absolute; left: 0%; top: 20px; font-size: 12px;"">–500 ms</div>
          <div style=""position: absolute; left: 50%; top: 20px; font-size: 12px; transform: translateX(-50%);"">0</div>
          <div style=""position: absolute; right: 0%; top: 20px; font-size: 12px;"">+500 ms</div>
        </div>

        <p>Press any key to continue.</p>
      </div>
    ","feedback_text","","","",""
"null","null","html-keyboard-response","15","14839","0.0-15.0","","<p style=""font-size: 48px;"">+</p>","iti","","","",""
"null","null","html-keyboard-response","16","15342","0.0-16.0","","<div class=""circle ready""></div>","ready","","","",""
"null","null","html-keyboard-response","17","16484","0.0-17.0","","","isi","","","",""
"null","null","html-keyboard-response","18","16987","0.0-18.0","","<div class=""circle set""></div>","set","500","","",""
"962"," ","html-keyboard-response","19","17950","0.0-19.0","","","go","","1140","962","-178"
"null","null","html-keyboard-response","20","18453","0.0-20.0","","<div class=""circle go""></div>","feedback_circle","","","",""
"null","null","html-keyboard-response","21","18956","0.0-21.0","","
      <div style=""text-align:center;"">
        
        <p style=""font-size: 16px; text-align: center;"">Trial 4 of 900</p>
        <p><strong>Error:</strong> -178 ms</p>

        <div style=""position: relative; width: 80%; height: 40px; margin: 40px auto;"">
          <div style=""height: 8px; background: linear-gradient(to right, #3498db, #ccc, #e74c3c); border-radius: 4px;""></div>
          <div style=""position: absolute; left: 32.2%; top: -6px; transform: translateX(-50%);"">
            <div style=""width: 14px; height: 14px; background: black; border-radius: 50%; border: 2px solid white;""></div>
          </div>
          <div style=""position: absolute; left: 0%; top: 20px; font-size: 12px;"">–500 ms</div>
          <div style=""position: absolute; left: 50%; top: 20px; font-size: 12px; transform: translateX(-50%);"">0</div>
          <div style=""position: absolute; right: 0%; top: 20px; font-size: 12px;"">+500 ms</div>
        </div>

        <p>Press any key to continue.</p>
      </div>
    ","feedback_text","","","",""
"null","null","html-keyboard-response","22","19959","0.0-22.0","","<p style=""font-size: 48px;"">+</p>","iti","","","",""
"null","null","html-keyboard-response","23","20462","0.0-23.0","","<div class=""circle ready""></div>","ready","","","",""
"null","null","html-keyboard-response","24","21375","0.0-24.0","","","isi","","","",""
"null","null","html-keyboard-response","25","21877","0.0-25.0","","<div class=""circle set""></div>","set","500","","",""
"982"," ","html-keyboard-response","26","22861","0.0-26.0","","","go","","910","982","72"
"null","null","html-keyboard-response","27","23363","0.0-27.0","","<div class=""circle go""></div>","feedback_circle","","","",""
"null","null","html-keyboard-response","28","23865","0.0-28.0","","
      <div style=""text-align:center;"">
        
        <p style=""font-size: 16px; text-align: center;"">Trial 5 of 900</p>
        <p><strong>Error:</strong> +72 ms</p>

        <div style=""position: relative; width: 80%; height: 40px; margin: 40px auto;"">
          <div style=""height: 8px; background: linear-gradient(to right, #3498db, #ccc, #e74c3c); border-radius: 4px;""></div>
          <div style=""position: absolute; left: 57.199999999999996%; top: -6px; transform: translateX(-50%);"">
            <div style=""width: 14px; height: 14px; background: black; border-radius: 50%; border: 2px solid white;""></div>
          </div>
          <div style=""position: absolute; left: 0%; top: 20px; font-size: 12px;"">–500 ms</div>
          <div style=""position: absolute; left: 50%; top: 20px; font-size: 12px; transform: translateX(-50%);"">0</div>
          <div style=""position: absolute; right: 0%; top: 20px; font-size: 12px;"">+500 ms</div>
        </div>

        <p>Press any key to continue.</p>
      </div>
    ","feedback_text","","","",""
"null","null","html-keyboard-response","29","24867","0.0-29.0","","<p style=""font-size: 48px;"">+</p>","iti","","","",""
"null","null","html-keyboard-response","30","25370","0.0-30.0","","<div class=""circle ready""></div>","ready","","","",""
"null","null","html-keyboard-response","31","26392","0.0-31.0","","","isi","","","",""
"null","null","html-keyboard-response","32","26894","0.0-32.0","","<div class=""circle set""></div>","set","500","","",""
"885"," ","html-keyboard-response","33","27781","0.0-33.0","","","go","","1020","885","-135"
"null","null","html-keyboard-response","34","28282","0.0-34.0","","<div class=""circle go""></div>","feedback_circle","","","",""
"null","null","html-keyboard-response","35","28785","0.0-35.0","","
      <div style=""text-align:center;"">
        
        <p style=""font-size: 16px; text-align: center;"">Trial 6 of 900</p>
        <p><strong>Error:</strong> -135 ms</p>

        <div style=""position: relative; width: 80%; height: 40px; margin: 40px auto;"">
          <div style=""height: 8px; background: linear-gradient(to right, #3498db, #ccc, #e74c3c); border-radius: 4px;""></div>
          <div style=""position: absolute; left: 36.5%; top: -6px; transform: translateX(-50%);"">
            <div style=""width: 14px; height: 14px; background: black; border-radius: 50%; border: 2px solid white;""></div>
          </div>
          <div style=""position: absolute; left: 0%; top: 20px; font-size: 12px;"">–500 ms</div>
          <div style=""position: absolute; left: 50%; top: 20px; font-size: 12px; transform: translateX(-50%);"">0</div>
          <div style=""position: absolute; right: 0%; top: 20px; font-size: 12px;"">+500 ms</div>
        </div>

        <p>Press any key to continue.</p>
      </div>
    ","feedback_text","","","",""
"null","null","html-keyboard-response","36","29786","0.0-36.0","","<p style=""font-size: 48px;"">+</p>","iti","","","",""
"null","null","html-keyboard-response","37","30289","0.0-37.0","","<div class=""circle ready""></div>","ready","","","",""
"null","null","html-keyboard-response","38","31371","0.0-38.0","","","isi","","","",""
"null","null","html-keyboard-response","39","31875","0.0-39.0","","<div class=""circle set""></div>","set","500","","",""
"1240"," ","html-keyboard-response","40","33116","0.0-40.0","","","go","","1080","1240","160"
"null","null","html-keyboard-response","41","33618","0.0-41.0","","<div class=""circle go""></div>","feedback_circle","","","",""
"null","null","html-keyboard-response","42","34121","0.0-42.0","","
      <div style=""text-align:center;"">
        
        <p style=""font-size: 16px; text-align: center;"">Trial 7 of 900</p>
        <p><strong>Error:</strong> +160 ms</p>

        <div style=""position: relative; width: 80%; height: 40px; margin: 40px auto;"">
          <div style=""height: 8px; background: linear-gradient(to right, #3498db, #ccc, #e74c3c); border-radius: 4px;""></div>
          <div style=""position: absolute; left: 66%; top: -6px; transform: translateX(-50%);"">
            <div style=""width: 14px; height: 14px; background: black; border-radius: 50%; border: 2px solid white;""></div>
          </div>
          <div style=""position: absolute; left: 0%; top: 20px; font-size: 12px;"">–500 ms</div>
          <div style=""position: absolute; left: 50%; top: 20px; font-size: 12px; transform: translateX(-50%);"">0</div>
          <div style=""position: absolute; right: 0%; top: 20px; font-size: 12px;"">+500 ms</div>
        </div>

        <p>Press any key to continue.</p>
      </div>
    ","feedback_text","","","",""
"null","null","html-keyboard-response","43","35124","0.0-43.0","","<p style=""font-size: 48px;"">+</p>","iti","","","",""
"null","null","html-keyboard-response","44","35628","0.0-44.0","","<div class=""circle ready""></div>","ready","","","",""
"null","null","html-keyboard-response","45","36770","0.0-45.0","","","isi","","","",""
"null","null","html-keyboard-response","46","37273","0.0-46.0","","<div class=""circle set""></div>","set","500","","",""
"1112"," ","html-keyboard-response","47","38387","0.0-47.0","","","go","","1140","1112","-28"
"null","null","html-keyboard-response","48","38888","0.0-48.0","","<div class=""circle go""></div>","feedback_circle","","","",""
"null","null","html-keyboard-response","49","39392","0.0-49.0","","
      <div style=""text-align:center;"">
        
        <p style=""font-size: 16px; text-align: center;"">Trial 8 of 900</p>
        <p><strong>Error:</strong> -28 ms</p>

        <div style=""position: relative; width: 80%; height: 40px; margin: 40px auto;"">
          <div style=""height: 8px; background: linear-gradient(to right, #3498db, #ccc, #e74c3c); border-radius: 4px;""></div>
          <div style=""position: absolute; left: 47.199999999999996%; top: -6px; transform: translateX(-50%);"">
            <div style=""width: 14px; height: 14px; background: black; border-radius: 50%; border: 2px solid white;""></div>
          </div>
          <div style=""position: absolute; left: 0%; top: 20px; font-size: 12px;"">–500 ms</div>
          <div style=""position: absolute; left: 50%; top: 20px; font-size: 12px; transform: translateX(-50%);"">0</div>
          <div style=""position: absolute; right: 0%; top: 20px; font-size: 12px;"">+500 ms</div>
        </div>

        <p>Press any key to continue.</p>
      </div>
    ","feedback_text","","","",""
"null","null","html-keyboard-response","50","40395","0.0-50.0","","<p style=""font-size: 48px;"">+</p>","iti","","","",""
"null","null","html-keyboard-response","51","40898","0.0-51.0","","<div class=""circle ready""></div>","ready","","","",""
"null","null","html-keyboard-response","52","41981","0.0-52.0","","","isi","","","",""
"null","null","html-keyboard-response","53","42483","0.0-53.0","","<div class=""circle set""></div>","set","500","","",""
"1294"," ","html-keyboard-response","54","43778","0.0-54.0","","","go","","1080","1294","214"
"null","null","html-keyboard-response","55","44280","0.0-55.0","","<div class=""circle go""></div>","feedback_circle","","","",""
"null","null","html-keyboard-response","56","44783","0.0-56.0","","
      <div style=""text-align:center;"">
        
        <p style=""font-size: 16px; text-align: center;"">Trial 9 of 900</p>
        <p><strong>Error:</strong> +214 ms</p>

        <div style=""position: relative; width: 80%; height: 40px; margin: 40px auto;"">
          <div style=""height: 8px; background: linear-gradient(to right, #3498db, #ccc, #e74c3c); border-radius: 4px;""></div>
          <div style=""position: absolute; left: 71.39999999999999%; top: -6px; transform: translateX(-50%);"">
            <div style=""width: 14px; height: 14px; background: black; border-radius: 50%; border: 2px solid white;""></div>
          </div>
          <div style=""position: absolute; left: 0%; top: 20px; font-size: 12px;"">–500 ms</div>
          <div style=""position: absolute; left: 50%; top: 20px; font-size: 12px; transform: translateX(-50%);"">0</div>
          <div style=""position: absolute; right: 0%; top: 20px; font-size: 12px;"">+500 ms</div>
        </div>

        <p>Press any key to continue.</p>
      </div>
    ","feedback_text","","","",""
"null","null","html-keyboard-response","57","45786","0.0-57.0","","<p style=""font-size: 48px;"">+</p>","iti","","","",""
"null","null","html-keyboard-response","58","46288","0.0-58.0","","<div class=""circle ready""></div>","ready","","","",""
"null","null","html-keyboard-response","59","47492","0.0-59.0","","","isi","","","",""
"null","null","html-keyboard-response","60","47995","0.0-60.0","","<div class=""circle set""></div>","set","500","","",""
"830"," ","html-keyboard-response","61","48826","0.0-61.0","","","go","","1200","830","-370"
"null","null","html-keyboard-response","62","49327","0.0-62.0","","<div class=""circle go""></div>","feedback_circle","","","",""
"null","null","html-keyboard-response","63","49831","0.0-63.0","","
      <div style=""text-align:center;"">
        
        <p style=""font-size: 16px; text-align: center;"">Trial 10 of 900</p>
        <p><strong>Error:</strong> -370 ms</p>

        <div style=""position: relative; width: 80%; height: 40px; margin: 40px auto;"">
          <div style=""height: 8px; background: linear-gradient(to right, #3498db, #ccc, #e74c3c); border-radius: 4px;""></div>
          <div style=""position: absolute; left: 13%; top: -6px; transform: translateX(-50%);"">
            <div style=""width: 14px; height: 14px; background: black; border-radius: 50%; border: 2px solid white;""></div>
          </div>
          <div style=""position: absolute; left: 0%; top: 20px; font-size: 12px;"">–500 ms</div>
          <div style=""position: absolute; left: 50%; top: 20px; font-size: 12px; transform: translateX(-50%);"">0</div>
          <div style=""position: absolute; right: 0%; top: 20px; font-size: 12px;"">+500 ms</div>
        </div>

        <p>Press any key to continue.</p>
      </div>
    ","feedback_text","","","",""
"null","null","html-keyboard-response","64","50834","0.0-64.0","","<p style=""font-size: 48px;"">+</p>","iti","","","",""
"null","null","html-keyboard-response","65","51336","0.0-65.0","","<div class=""circle ready""></div>","ready","","","",""
"null","null","html-keyboard-response","66","52539","0.0-66.0","","","isi","","","",""
"null","null","html-keyboard-response","67","53042","0.0-67.0","","<div class=""circle set""></div>","set","500","","",""
"1115"," ","html-keyboard-response","68","54158","0.0-68.0","","","go","","1200","1115","-85"
"null","null","html-keyboard-response","69","54660","0.0-69.0","","<div class=""circle go""></div>","feedback_circle","","","",""
"null","null","html-keyboard-response","70","55163","0.0-70.0","","
      <div style=""text-align:center;"">
        
        <p style=""font-size: 16px; text-align: center;"">Trial 11 of 900</p>
        <p><strong>Error:</strong> -85 ms</p>

        <div style=""position: relative; width: 80%; height: 40px; margin: 40px auto;"">
          <div style=""height: 8px; background: linear-gradient(to right, #3498db, #ccc, #e74c3c); border-radius: 4px;""></div>
          <div style=""position: absolute; left: 41.5%; top: -6px; transform: translateX(-50%);"">
            <div style=""width: 14px; height: 14px; background: black; border-radius: 50%; border: 2px solid white;""></div>
          </div>
          <div style=""position: absolute; left: 0%; top: 20px; font-size: 12px;"">–500 ms</div>
          <div style=""position: absolute; left: 50%; top: 20px; font-size: 12px; transform: translateX(-50%);"">0</div>
          <div style=""position: absolute; right: 0%; top: 20px; font-size: 12px;"">+500 ms</div>
        </div>

        <p>Press any key to continue.</p>
      </div>
    ","feedback_text","","","",""
"null","null","html-keyboard-response","71","56166","0.0-71.0","","<p style=""font-size: 48px;"">+</p>","iti","","","",""
"null","null","html-keyboard-response","72","56668","0.0-72.0","","<div class=""circle ready""></div>","ready","","","",""
"null","null","html-keyboard-response","73","57521","0.0-73.0","","","isi","","","",""
"null","null","html-keyboard-response","74","58023","0.0-74.0","","<div class=""circle set""></div>","set","500","","",""
"723"," ","html-keyboard-response","75","58747","0.0-75.0","","","go","","850","723","-127"
"null","null","html-keyboard-response","76","59249","0.0-76.0","","<div class=""circle go""></div>","feedback_circle","","","",""
"null","null","html-keyboard-response","77","59751","0.0-77.0","","
      <div style=""text-align:center;"">
        
        <p style=""font-size: 16px; text-align: center;"">Trial 12 of 900</p>
        <p><strong>Error:</strong> -127 ms</p>

        <div style=""position: relative; width: 80%; height: 40px; margin: 40px auto;"">
          <div style=""height: 8px; background: linear-gradient(to right, #3498db, #ccc, #e74c3c); border-radius: 4px;""></div>
          <div style=""position: absolute; left: 37.3%; top: -6px; transform: translateX(-50%);"">
            <div style=""width: 14px; height: 14px; background: black; border-radius: 50%; border: 2px solid white;""></div>
          </div>
          <div style=""position: absolute; left: 0%; top: 20px; font-size: 12px;"">–500 ms</div>
          <div style=""position: absolute; left: 50%; top: 20px; font-size: 12px; transform: translateX(-50%);"">0</div>
          <div style=""position: absolute; right: 0%; top: 20px; font-size: 12px;"">+500 ms</div>
        </div>

        <p>Press any key to continue.</p>
      </div>
    ","feedback_text","","","",""
"null","null","html-keyboard-response","78","60754","0.0-78.0","","<p style=""font-size: 48px;"">+</p>","iti","","","",""
"null","null","html-keyboard-response","79","61257","0.0-79.0","","<div class=""circle ready""></div>","ready","","","",""
"null","null","html-keyboard-response","80","62460","0.0-80.0","","","isi","","","",""
"null","null","html-keyboard-response","81","62963","0.0-81.0","","<div class=""circle set""></div>","set","500","","",""
"1116"," ","html-keyboard-response","82","64080","0.0-82.0","","","go","","1200","1116","-84"
"null","null","html-keyboard-response","83","64582","0.0-83.0","","<div class=""circle go""></div>","feedback_circle","","","",""
"null","null","html-keyboard-response","84","65084","0.0-84.0","","
      <div style=""text-align:center;"">
        
        <p style=""font-size: 16px; text-align: center;"">Trial 13 of 900</p>
        <p><strong>Error:</strong> -84 ms</p>

        <div style=""position: relative; width: 80%; height: 40px; margin: 40px auto;"">
          <div style=""height: 8px; background: linear-gradient(to right, #3498db, #ccc, #e74c3c); border-radius: 4px;""></div>
          <div style=""position: absolute; left: 41.6%; top: -6px; transform: translateX(-50%);"">
            <div style=""width: 14px; height: 14px; background: black; border-radius: 50%; border: 2px solid white;""></div>
          </div>
          <div style=""position: absolute; left: 0%; top: 20px; font-size: 12px;"">–500 ms</div>
          <div style=""position: absolute; left: 50%; top: 20px; font-size: 12px; transform: translateX(-50%);"">0</div>
          <div style=""position: absolute; right: 0%; top: 20px; font-size: 12px;"">+500 ms</div>
        </div>

        <p>Press any key to continue.</p>
      </div>
    ","feedback_text","","","",""
"null","null","html-keyboard-response","85","66085","0.0-85.0","","<p style=""font-size: 48px;"">+</p>","iti","","","",""
"null","null","html-keyboard-response","86","66588","0.0-86.0","","<div class=""circle ready""></div>","ready","","","",""
"null","null","html-keyboard-response","87","67731","0.0-87.0","","","isi","","","",""
"null","null","html-keyboard-response","88","68235","0.0-88.0","","<div class=""circle set""></div>","set","500","","",""
"987"," ","html-keyboard-response","89","69223","0.0-89.0","","","go","","1140","987","-153"
"null","null","html-keyboard-response","90","69725","0.0-90.0","","<div class=""circle go""></div>","feedback_circle","","","",""
"null","null","html-keyboard-response","91","70228","0.0-91.0","","
      <div style=""text-align:center;"">
        
        <p style=""font-size: 16px; text-align: center;"">Trial 14 of 900</p>
        <p><strong>Error:</strong> -153 ms</p>

        <div style=""position: relative; width: 80%; height: 40px; margin: 40px auto;"">
          <div style=""height: 8px; background: linear-gradient(to right, #3498db, #ccc, #e74c3c); border-radius: 4px;""></div>
          <div style=""position: absolute; left: 34.699999999999996%; top: -6px; transform: translateX(-50%);"">
            <div style=""width: 14px; height: 14px; background: black; border-radius: 50%; border: 2px solid white;""></div>
          </div>
          <div style=""position: absolute; left: 0%; top: 20px; font-size: 12px;"">–500 ms</div>
          <div style=""position: absolute; left: 50%; top: 20px; font-size: 12px; transform: translateX(-50%);"">0</div>
          <div style=""position: absolute; right: 0%; top: 20px; font-size: 12px;"">+500 ms</div>
        </div>

        <p>Press any key to continue.</p>
      </div>
    ","feedback_text","","","",""
"null","null","html-keyboard-response","92","71229","0.0-92.0","","<p style=""font-size: 48px;"">+</p>","iti","","","",""
"null","null","html-keyboard-response","93","71731","0.0-93.0","","<div class=""circle ready""></div>","ready","","","",""
"null","null","html-keyboard-response","94","72644","0.0-94.0","","","isi","","","",""
"null","null","html-keyboard-response","95","73146","0.0-95.0","","<div class=""circle set""></div>","set","500","","",""
"933"," ","html-keyboard-response","96","74081","0.0-96.0","","","go","","910","933","23"
"null","null","html-keyboard-response","97","74583","0.0-97.0","","<div class=""circle go""></div>","feedback_circle","","","",""
"null","null","html-keyboard-response","98","75086","0.0-98.0","","
      <div style=""text-align:center;"">
        
        <p style=""font-size: 16px; text-align: center;"">Trial 15 of 900</p>
        <p><strong>Error:</strong> +23 ms</p>

        <div style=""position: relative; width: 80%; height: 40px; margin: 40px auto;"">
          <div style=""height: 8px; background: linear-gradient(to right, #3498db, #ccc, #e74c3c); border-radius: 4px;""></div>
          <div style=""position: absolute; left: 52.300000000000004%; top: -6px; transform: translateX(-50%);"">
            <div style=""width: 14px; height: 14px; background: black; border-radius: 50%; border: 2px solid white;""></div>
          </div>
          <div style=""position: absolute; left: 0%; top: 20px; font-size: 12px;"">–500 ms</div>
          <div style=""position: absolute; left: 50%; top: 20px; font-size: 12px; transform: translateX(-50%);"">0</div>
          <div style=""position: absolute; right: 0%; top: 20px; font-size: 12px;"">+500 ms</div>
        </div>

        <p>Press any key to continue.</p>
      </div>
    ","feedback_text","","","",""
"null","null","html-keyboard-response","99","76088","0.0-99.0","","<p style=""font-size: 48px;"">+</p>","iti","","","",""
"null","null","html-keyboard-response","100","76591","0.0-100.0","","<div class=""circle ready""></div>","ready","","","",""
"null","null","html-keyboard-response","101","77504","0.0-101.0","","","isi","","","",""
"null","null","html-keyboard-response","102","78007","0.0-102.0","","<div class=""circle set""></div>","set","500","","",""
"1034"," ","html-keyboard-response","103","79042","0.0-103.0","","","go","","910","1034","124"
"null","null","html-keyboard-response","104","79544","0.0-104.0","","<div class=""circle go""></div>","feedback_circle","","","",""
"null","null","html-keyboard-response","105","80047","0.0-105.0","","
      <div style=""text-align:center;"">
        
        <p style=""font-size: 16px; text-align: center;"">Trial 16 of 900</p>
        <p><strong>Error:</strong> +124 ms</p>

        <div style=""position: relative; width: 80%; height: 40px; margin: 40px auto;"">
          <div style=""height: 8px; background: linear-gradient(to right, #3498db, #ccc, #e74c3c); border-radius: 4px;""></div>
          <div style=""position: absolute; left: 62.4%; top: -6px; transform: translateX(-50%);"">
            <div style=""width: 14px; height: 14px; background: black; border-radius: 50%; border: 2px solid white;""></div>
          </div>
          <div style=""position: absolute; left: 0%; top: 20px; font-size: 12px;"">–500 ms</div>
          <div style=""position: absolute; left: 50%; top: 20px; font-size: 12px; transform: translateX(-50%);"">0</div>
          <div style=""position: absolute; right: 0%; top: 20px; font-size: 12px;"">+500 ms</div>
        </div>

        <p>Press any key to continue.</p>
      </div>
    ","feedback_text","","","",""
"null","null","html-keyboard-response","106","81050","0.0-106.0","","<p style=""font-size: 48px;"">+</p>","iti","","","",""
"null","null","html-keyboard-response","107","81552","0.0-107.0","","<div class=""circle ready""></div>","ready","","","",""
"null","null","html-keyboard-response","108","82754","0.0-108.0","","","isi","","","",""
"null","null","html-keyboard-response","109","83257","0.0-109.0","","<div class=""circle set""></div>","set","500","","",""
"1145"," ","html-keyboard-response","110","84403","0.0-110.0","","","go","","1200","1145","-55"
"null","null","html-keyboard-response","111","84905","0.0-111.0","","<div class=""circle go""></div>","feedback_circle","","","",""
"null","null","html-keyboard-response","112","85409","0.0-112.0","","
      <div style=""text-align:center;"">
        
        <p style=""font-size: 16px; text-align: center;"">Trial 17 of 900</p>
        <p><strong>Error:</strong> -55 ms</p>

        <div style=""position: relative; width: 80%; height: 40px; margin: 40px auto;"">
          <div style=""height: 8px; background: linear-gradient(to right, #3498db, #ccc, #e74c3c); border-radius: 4px;""></div>
          <div style=""position: absolute; left: 44.5%; top: -6px; transform: translateX(-50%);"">
            <div style=""width: 14px; height: 14px; background: black; border-radius: 50%; border: 2px solid white;""></div>
          </div>
          <div style=""position: absolute; left: 0%; top: 20px; font-size: 12px;"">–500 ms</div>
          <div style=""position: absolute; left: 50%; top: 20px; font-size: 12px; transform: translateX(-50%);"">0</div>
          <div style=""position: absolute; right: 0%; top: 20px; font-size: 12px;"">+500 ms</div>
        </div>

        <p>Press any key to continue.</p>
      </div>
    ","feedback_text","","","",""
"null","null","html-keyboard-response","113","86411","0.0-113.0","","<p style=""font-size: 48px;"">+</p>","iti","","","",""
"null","null","html-keyboard-response","114","86914","0.0-114.0","","<div class=""circle ready""></div>","ready","","","",""
"null","null","html-keyboard-response","115","87766","0.0-115.0","","","isi","","","",""
"null","null","html-keyboard-response","116","88269","0.0-116.0","","<div class=""circle set""></div>","set","500","","",""
"1080"," ","html-keyboard-response","117","89351","0.0-117.0","","","go","","850","1080","230"
"null","null","html-keyboard-response","118","89852","0.0-118.0","","<div class=""circle go""></div>","feedback_circle","","","",""
"null","null","html-keyboard-response","119","90356","0.0-119.0","","
      <div style=""text-align:center;"">
        
        <p style=""font-size: 16px; text-align: center;"">Trial 18 of 900</p>
        <p><strong>Error:</strong> +230 ms</p>

        <div style=""position: relative; width: 80%; height: 40px; margin: 40px auto;"">
          <div style=""height: 8px; background: linear-gradient(to right, #3498db, #ccc, #e74c3c); border-radius: 4px;""></div>
          <div style=""position: absolute; left: 73%; top: -6px; transform: translateX(-50%);"">
            <div style=""width: 14px; height: 14px; background: black; border-radius: 50%; border: 2px solid white;""></div>
          </div>
          <div style=""position: absolute; left: 0%; top: 20px; font-size: 12px;"">–500 ms</div>
          <div style=""position: absolute; left: 50%; top: 20px; font-size: 12px; transform: translateX(-50%);"">0</div>
          <div style=""position: absolute; right: 0%; top: 20px; font-size: 12px;"">+500 ms</div>
        </div>

        <p>Press any key to continue.</p>
      </div>
    ","feedback_text","","","",""
"null","null","html-keyboard-response","120","91358","0.0-120.0","","<p style=""font-size: 48px;"">+</p>","iti","","","",""
"null","null","html-keyboard-response","121","91860","0.0-121.0","","<div class=""circle ready""></div>","ready","","","",""
"null","null","html-keyboard-response","122","92713","0.0-122.0","","","isi","","","",""
"null","null","html-keyboard-response","123","93216","0.0-123.0","","<div class=""circle set""></div>","set","500","","",""
"1209"," ","html-keyboard-response","124","94426","0.0-124.0","","","go","","850","1209","359"
"null","null","html-keyboard-response","125","94928","0.0-125.0","","<div class=""circle go""></div>","feedback_circle","","","",""
"null","null","html-keyboard-response","126","95431","0.0-126.0","","
      <div style=""text-align:center;"">
        
        <p style=""font-size: 16px; text-align: center;"">Trial 19 of 900</p>
        <p><strong>Error:</strong> +359 ms</p>

        <div style=""position: relative; width: 80%; height: 40px; margin: 40px auto;"">
          <div style=""height: 8px; background: linear-gradient(to right, #3498db, #ccc, #e74c3c); border-radius: 4px;""></div>
          <div style=""position: absolute; left: 85.9%; top: -6px; transform: translateX(-50%);"">
            <div style=""width: 14px; height: 14px; background: black; border-radius: 50%; border: 2px solid white;""></div>
          </div>
          <div style=""position: absolute; left: 0%; top: 20px; font-size: 12px;"">–500 ms</div>
          <div style=""position: absolute; left: 50%; top: 20px; font-size: 12px; transform: translateX(-50%);"">0</div>
          <div style=""position: absolute; right: 0%; top: 20px; font-size: 12px;"">+500 ms</div>
        </div>

        <p>Press any key to continue.</p>
      </div>
    ","feedback_text","","","",""
"null","null","html-keyboard-response","127","96432","0.0-127.0","","<p style=""font-size: 48px;"">+</p>","iti","","","",""
"null","null","html-keyboard-response","128","96935","0.0-128.0","","<div class=""circle ready""></div>","ready","","","",""
"null","null","html-keyboard-response","129","97788","0.0-129.0","","","isi","","","",""
"null","null","html-keyboard-response","130","98291","0.0-130.0","","<div class=""circle set""></div>","set","500","","",""
"616"," ","html-keyboard-response","131","98908","0.0-131.0","","","go","","850","616","-234"
"null","null","html-keyboard-response","132","99410","0.0-132.0","","<div class=""circle go""></div>","feedback_circle","","","",""
"null","null","html-keyboard-response","133","99912","0.0-133.0","","
      <div style=""text-align:center;"">
        
        <p style=""font-size: 16px; text-align: center;"">Trial 20 of 900</p>
        <p><strong>Error:</strong> -234 ms</p>

        <div style=""position: relative; width: 80%; height: 40px; margin: 40px auto;"">
          <div style=""height: 8px; background: linear-gradient(to right, #3498db, #ccc, #e74c3c); border-radius: 4px;""></div>
          <div style=""position: absolute; left: 26.6%; top: -6px; transform: translateX(-50%);"">
            <div style=""width: 14px; height: 14px; background: black; border-radius: 50%; border: 2px solid white;""></div>
          </div>
          <div style=""position: absolute; left: 0%; top: 20px; font-size: 12px;"">–500 ms</div>
          <div style=""position: absolute; left: 50%; top: 20px; font-size: 12px; transform: translateX(-50%);"">0</div>
          <div style=""position: absolute; right: 0%; top: 20px; font-size: 12px;"">+500 ms</div>
        </div>

        <p>Press any key to continue.</p>
      </div>
    ","feedback_text","","","",""
"null","null","html-keyboard-response","134","100915","0.0-134.0","","<p style=""font-size: 48px;"">+</p>","iti","","","",""
"null","null","html-keyboard-response","135","101418","0.0-135.0","","<div class=""circle ready""></div>","ready","","","",""
"null","null","html-keyboard-response","136","102440","0.0-136.0","","","isi","","","",""
"null","null","html-keyboard-response","137","102942","0.0-137.0","","<div class=""circle set""></div>","set","500","","",""
"1027"," ","html-keyboard-response","138","103970","0.0-138.0","","","go","","1020","1027","7"
"null","null","html-keyboard-response","139","104472","0.0-139.0","","<div class=""circle go""></div>","feedback_circle","","","",""
"null","null","html-keyboard-response","140","104974","0.0-140.0","","
      <div style=""text-align:center;"">
        
        <p style=""font-size: 16px; text-align: center;"">Trial 21 of 900</p>
        <p><strong>Error:</strong> +7 ms</p>

        <div style=""position: relative; width: 80%; height: 40px; margin: 40px auto;"">
          <div style=""height: 8px; background: linear-gradient(to right, #3498db, #ccc, #e74c3c); border-radius: 4px;""></div>
          <div style=""position: absolute; left: 50.7%; top: -6px; transform: translateX(-50%);"">
            <div style=""width: 14px; height: 14px; background: black; border-radius: 50%; border: 2px solid white;""></div>
          </div>
          <div style=""position: absolute; left: 0%; top: 20px; font-size: 12px;"">–500 ms</div>
          <div style=""position: absolute; left: 50%; top: 20px; font-size: 12px; transform: translateX(-50%);"">0</div>
          <div style=""position: absolute; right: 0%; top: 20px; font-size: 12px;"">+500 ms</div>
        </div>

        <p>Press any key to continue.</p>
      </div>
    ","feedback_text","","","",""
"null","null","html-keyboard-response","141","105977","0.0-141.0","","<p style=""font-size: 48px;"">+</p>","iti","","","",""
"null","null","html-keyboard-response","142","106479","0.0-142.0","","<div class=""circle ready""></div>","ready","","","",""
"null","null","html-keyboard-response","143","107443","0.0-143.0","","","isi","","","",""
"null","null","html-keyboard-response","144","107945","0.0-144.0","","<div class=""circle set""></div>","set","500","","",""
"954"," ","html-keyboard-response","145","108900","0.0-145.0","","","go","","960","954","-6"
"null","null","html-keyboard-response","146","109402","0.0-146.0","","<div class=""circle go""></div>","feedback_circle","","","",""
"null","null","html-keyboard-response","147","109904","0.0-147.0","","
      <div style=""text-align:center;"">
        
        <p style=""font-size: 16px; text-align: center;"">Trial 22 of 900</p>
        <p><strong>Error:</strong> -6 ms</p>

        <div style=""position: relative; width: 80%; height: 40px; margin: 40px auto;"">
          <div style=""height: 8px; background: linear-gradient(to right, #3498db, #ccc, #e74c3c); border-radius: 4px;""></div>
          <div style=""position: absolute; left: 49.4%; top: -6px; transform: translateX(-50%);"">
            <div style=""width: 14px; height: 14px; background: black; border-radius: 50%; border: 2px solid white;""></div>
          </div>
          <div style=""position: absolute; left: 0%; top: 20px; font-size: 12px;"">–500 ms</div>
          <div style=""position: absolute; left: 50%; top: 20px; font-size: 12px; transform: translateX(-50%);"">0</div>
          <div style=""position: absolute; right: 0%; top: 20px; font-size: 12px;"">+500 ms</div>
        </div>

        <p>Press any key to continue.</p>
      </div>
    ","feedback_text","","","",""
"null","null","html-keyboard-response","148","110907","0.0-148.0","","<p style=""font-size: 48px;"">+</p>","iti","","","",""
"null","null","html-keyboard-response","149","111409","0.0-149.0","","<div class=""circle ready""></div>","ready","","","",""
"null","null","html-keyboard-response","150","112432","0.0-150.0","","","isi","","","",""
"null","null","html-keyboard-response","151","112935","0.0-151.0","","<div class=""circle set""></div>","set","500","","",""
"993"," ","html-keyboard-response","152","113929","0.0-152.0","","","go","","1020","993","-27"
"null","null","html-keyboard-response","153","114430","0.0-153.0","","<div class=""circle go""></div>","feedback_circle","","","",""
"null","null","html-keyboard-response","154","114933","0.0-154.0","","
      <div style=""text-align:center;"">
        
        <p style=""font-size: 16px; text-align: center;"">Trial 23 of 900</p>
        <p><strong>Error:</strong> -27 ms</p>

        <div style=""position: relative; width: 80%; height: 40px; margin: 40px auto;"">
          <div style=""height: 8px; background: linear-gradient(to right, #3498db, #ccc, #e74c3c); border-radius: 4px;""></div>
          <div style=""position: absolute; left: 47.3%; top: -6px; transform: translateX(-50%);"">
            <div style=""width: 14px; height: 14px; background: black; border-radius: 50%; border: 2px solid white;""></div>
          </div>
          <div style=""position: absolute; left: 0%; top: 20px; font-size: 12px;"">–500 ms</div>
          <div style=""position: absolute; left: 50%; top: 20px; font-size: 12px; transform: translateX(-50%);"">0</div>
          <div style=""position: absolute; right: 0%; top: 20px; font-size: 12px;"">+500 ms</div>
        </div>

        <p>Press any key to continue.</p>
      </div>
    ","feedback_text","","","",""
"null","null","html-keyboard-response","155","115935","0.0-155.0","","<p style=""font-size: 48px;"">+</p>","iti","","","",""
"null","null","html-keyboard-response","156","116438","0.0-156.0","","<div class=""circle ready""></div>","ready","","","",""
"null","null","html-keyboard-response","157","117400","0.0-157.0","","","isi","","","",""
"null","null","html-keyboard-response","158","117903","0.0-158.0","","<div class=""circle set""></div>","set","500","","",""
"974"," ","html-keyboard-response","159","118879","0.0-159.0","","","go","","960","974","14"
"null","null","html-keyboard-response","160","119380","0.0-160.0","","<div class=""circle go""></div>","feedback_circle","","","",""
"null","null","html-keyboard-response","161","119884","0.0-161.0","","
      <div style=""text-align:center;"">
        
        <p style=""font-size: 16px; text-align: center;"">Trial 24 of 900</p>
        <p><strong>Error:</strong> +14 ms</p>

        <div style=""position: relative; width: 80%; height: 40px; margin: 40px auto;"">
          <div style=""height: 8px; background: linear-gradient(to right, #3498db, #ccc, #e74c3c); border-radius: 4px;""></div>
          <div style=""position: absolute; left: 51.4%; top: -6px; transform: translateX(-50%);"">
            <div style=""width: 14px; height: 14px; background: black; border-radius: 50%; border: 2px solid white;""></div>
          </div>
          <div style=""position: absolute; left: 0%; top: 20px; font-size: 12px;"">–500 ms</div>
          <div style=""position: absolute; left: 50%; top: 20px; font-size: 12px; transform: translateX(-50%);"">0</div>
          <div style=""position: absolute; right: 0%; top: 20px; font-size: 12px;"">+500 ms</div>
        </div>

        <p>Press any key to continue.</p>
      </div>
    ","feedback_text","","","",""
"null","null","html-keyboard-response","162","120887","0.0-162.0","","<p style=""font-size: 48px;"">+</p>","iti","","","",""
"null","null","html-keyboard-response","163","121390","0.0-163.0","","<div class=""circle ready""></div>","ready","","","",""
"null","null","html-keyboard-response","164","122242","0.0-164.0","","","isi","","","",""
"null","null","html-keyboard-response","165","122745","0.0-165.0","","<div class=""circle set""></div>","set","500","","",""
"1115"," ","html-keyboard-response","166","123862","0.0-166.0","","","go","","850","1115","265"
"null","null","html-keyboard-response","167","124364","0.0-167.0","","<div class=""circle go""></div>","feedback_circle","","","",""
"null","null","html-keyboard-response","168","124867","0.0-168.0","","
      <div style=""text-align:center;"">
        
        <p style=""font-size: 16px; text-align: center;"">Trial 25 of 900</p>
        <p><strong>Error:</strong> +265 ms</p>

        <div style=""position: relative; width: 80%; height: 40px; margin: 40px auto;"">
          <div style=""height: 8px; background: linear-gradient(to right, #3498db, #ccc, #e74c3c); border-radius: 4px;""></div>
          <div style=""position: absolute; left: 76.5%; top: -6px; transform: translateX(-50%);"">
            <div style=""width: 14px; height: 14px; background: black; border-radius: 50%; border: 2px solid white;""></div>
          </div>
          <div style=""position: absolute; left: 0%; top: 20px; font-size: 12px;"">–500 ms</div>
          <div style=""position: absolute; left: 50%; top: 20px; font-size: 12px; transform: translateX(-50%);"">0</div>
          <div style=""position: absolute; right: 0%; top: 20px; font-size: 12px;"">+500 ms</div>
        </div>

        <p>Press any key to continue.</p>
      </div>
    ","feedback_text","","","",""
"null","null","html-keyboard-response","169","125869","0.0-169.0","","<p style=""font-size: 48px;"">+</p>","iti","","","",""
"null","null","html-keyboard-response","170","126372","0.0-170.0","","<div class=""circle ready""></div>","ready","","","",""
"null","null","html-keyboard-response","171","127225","0.0-171.0","","","isi","","","",""
"null","null","html-keyboard-response","172","127728","0.0-172.0","","<div class=""circle set""></div>","set","500","","",""
"746"," ","html-keyboard-response","173","128475","0.0-173.0","","","go","","850","746","-104"
"null","null","html-keyboard-response","174","128977","0.0-174.0","","<div class=""circle go""></div>","feedback_circle","","","",""
"null","null","html-keyboard-response","175","129479","0.0-175.0","","
      <div style=""text-align:center;"">
        
        <p style=""font-size: 16px; text-align: center;"">Trial 26 of 900</p>
        <p><strong>Error:</strong> -104 ms</p>

        <div style=""position: relative; width: 80%; height: 40px; margin: 40px auto;"">
          <div style=""height: 8px; background: linear-gradient(to right, #3498db, #ccc, #e74c3c); border-radius: 4px;""></div>
          <div style=""position: absolute; left: 39.6%; top: -6px; transform: translateX(-50%);"">
            <div style=""width: 14px; height: 14px; background: black; border-radius: 50%; border: 2px solid white;""></div>
          </div>
          <div style=""position: absolute; left: 0%; top: 20px; font-size: 12px;"">–500 ms</div>
          <div style=""position: absolute; left: 50%; top: 20px; font-size: 12px; transform: translateX(-50%);"">0</div>
          <div style=""position: absolute; right: 0%; top: 20px; font-size: 12px;"">+500 ms</div>
        </div>

        <p>Press any key to continue.</p>
      </div>
    ","feedback_text","","","",""
"null","null","html-keyboard-response","176","130480","0.0-176.0","","<p style=""font-size: 48px;"">+</p>","iti","","","",""
"null","null","html-keyboard-response","177","130982","0.0-177.0","","<div class=""circle ready""></div>","ready","","","",""
"null","null","html-keyboard-response","178","131894","0.0-178.0","","","isi","","","",""
"null","null","html-keyboard-response","179","132396","0.0-179.0","","<div class=""circle set""></div>","set","500","","",""
"1135"," ","html-keyboard-response","180","133532","0.0-180.0","","","go","","910","1135","225"
"null","null","html-keyboard-response","181","134033","0.0-181.0","","<div class=""circle go""></div>","feedback_circle","","","",""
"null","null","html-keyboard-response","182","134536","0.0-182.0","","
      <div style=""text-align:center;"">
        
        <p style=""font-size: 16px; text-align: center;"">Trial 27 of 900</p>
        <p><strong>Error:</strong> +225 ms</p>

        <div style=""position: relative; width: 80%; height: 40px; margin: 40px auto;"">
          <div style=""height: 8px; background: linear-gradient(to right, #3498db, #ccc, #e74c3c); border-radius: 4px;""></div>
          <div style=""position: absolute; left: 72.5%; top: -6px; transform: translateX(-50%);"">
            <div style=""width: 14px; height: 14px; background: black; border-radius: 50%; border: 2px solid white;""></div>
          </div>
          <div style=""position: absolute; left: 0%; top: 20px; font-size: 12px;"">–500 ms</div>
          <div style=""position: absolute; left: 50%; top: 20px; font-size: 12px; transform: translateX(-50%);"">0</div>
          <div style=""position: absolute; right: 0%; top: 20px; font-size: 12px;"">+500 ms</div>
        </div>

        <p>Press any key to continue.</p>
      </div>
    ","feedback_text","","","",""
"null","null","html-keyboard-response","183","135538","0.0-183.0","","<p style=""font-size: 48px;"">+</p>","iti","","","",""
"null","null","html-keyboard-response","184","136040","0.0-184.0","","<div class=""circle ready""></div>","ready","","","",""
"null","null","html-keyboard-response","185","137242","0.0-185.0","","","isi","","","",""
"null","null","html-keyboard-response","186","137744","0.0-186.0","","<div class=""circle set""></div>","set","500","","",""
"1105"," ","html-keyboard-response","187","138850","0.0-187.0","","","go","","1200","1105","-95"
"null","null","html-keyboard-response","188","139352","0.0-188.0","","<div class=""circle go""></div>","feedback_circle","","","",""
"null","null","html-keyboard-response","189","139855","0.0-189.0","","
      <div style=""text-align:center;"">
        
        <p style=""font-size: 16px; text-align: center;"">Trial 28 of 900</p>
        <p><strong>Error:</strong> -95 ms</p>

        <div style=""position: relative; width: 80%; height: 40px; margin: 40px auto;"">
          <div style=""height: 8px; background: linear-gradient(to right, #3498db, #ccc, #e74c3c); border-radius: 4px;""></div>
          <div style=""position: absolute; left: 40.5%; top: -6px; transform: translateX(-50%);"">
            <div style=""width: 14px; height: 14px; background: black; border-radius: 50%; border: 2px solid white;""></div>
          </div>
          <div style=""position: absolute; left: 0%; top: 20px; font-size: 12px;"">–500 ms</div>
          <div style=""position: absolute; left: 50%; top: 20px; font-size: 12px; transform: translateX(-50%);"">0</div>
          <div style=""position: absolute; right: 0%; top: 20px; font-size: 12px;"">+500 ms</div>
        </div>

        <p>Press any key to continue.</p>
      </div>
    ","feedback_text","","","",""
"null","null","html-keyboard-response","190","140857","0.0-190.0","","<p style=""font-size: 48px;"">+</p>","iti","","","",""
"null","null","html-keyboard-response","191","141360","0.0-191.0","","<div class=""circle ready""></div>","ready","","","",""
"null","null","html-keyboard-response","192","142442","0.0-192.0","","","isi","","","",""
"null","null","html-keyboard-response","193","142945","0.0-193.0","","<div class=""circle set""></div>","set","500","","",""
"1085"," ","html-keyboard-response","194","144031","0.0-194.0","","","go","","1080","1085","5"
"null","null","html-keyboard-response","195","144533","0.0-195.0","","<div class=""circle go""></div>","feedback_circle","","","",""
"null","null","html-keyboard-response","196","145035","0.0-196.0","","
      <div style=""text-align:center;"">
        
        <p style=""font-size: 16px; text-align: center;"">Trial 29 of 900</p>
        <p><strong>Error:</strong> +5 ms</p>

        <div style=""position: relative; width: 80%; height: 40px; margin: 40px auto;"">
          <div style=""height: 8px; background: linear-gradient(to right, #3498db, #ccc, #e74c3c); border-radius: 4px;""></div>
          <div style=""position: absolute; left: 50.5%; top: -6px; transform: translateX(-50%);"">
            <div style=""width: 14px; height: 14px; background: black; border-radius: 50%; border: 2px solid white;""></div>
          </div>
          <div style=""position: absolute; left: 0%; top: 20px; font-size: 12px;"">–500 ms</div>
          <div style=""position: absolute; left: 50%; top: 20px; font-size: 12px; transform: translateX(-50%);"">0</div>
          <div style=""position: absolute; right: 0%; top: 20px; font-size: 12px;"">+500 ms</div>
        </div>

        <p>Press any key to continue.</p>
      </div>
    ","feedback_text","","","",""
"null","null","html-keyboard-response","197","146037","0.0-197.0","","<p style=""font-size: 48px;"">+</p>","iti","","","",""
"null","null","html-keyboard-response","198","146539","0.0-198.0","","<div class=""circle ready""></div>","ready","","","",""
"null","null","html-keyboard-response","199","147681","0.0-199.0","","","isi","","","",""
"null","null","html-keyboard-response","200","148183","0.0-200.0","","<div class=""circle set""></div>","set","500","","",""
"1319"," ","html-keyboard-response","201","149503","0.0-201.0","","","go","","1140","1319","179"
"null","null","html-keyboard-response","202","150004","0.0-202.0","","<div class=""circle go""></div>","feedback_circle","","","",""
"null","null","html-keyboard-response","203","150507","0.0-203.0","","
      <div style=""text-align:center;"">
        
        <p style=""font-size: 16px; text-align: center;"">Trial 30 of 900</p>
        <p><strong>Error:</strong> +179 ms</p>

        <div style=""position: relative; width: 80%; height: 40px; margin: 40px auto;"">
          <div style=""height: 8px; background: linear-gradient(to right, #3498db, #ccc, #e74c3c); border-radius: 4px;""></div>
          <div style=""position: absolute; left: 67.9%; top: -6px; transform: translateX(-50%);"">
            <div style=""width: 14px; height: 14px; background: black; border-radius: 50%; border: 2px solid white;""></div>
          </div>
          <div style=""position: absolute; left: 0%; top: 20px; font-size: 12px;"">–500 ms</div>
          <div style=""position: absolute; left: 50%; top: 20px; font-size: 12px; transform: translateX(-50%);"">0</div>
          <div style=""position: absolute; right: 0%; top: 20px; font-size: 12px;"">+500 ms</div>
        </div>

        <p>Press any key to continue.</p>
      </div>
    ","feedback_text","","","",""
"null","null","html-keyboard-response","204","151510","0.0-204.0","","<p style=""font-size: 48px;"">+</p>","iti","","","",""
"null","null","html-keyboard-response","205","152012","0.0-205.0","","<div class=""circle ready""></div>","ready","","","",""
"null","null","html-keyboard-response","206","153035","0.0-206.0","","","isi","","","",""
"null","null","html-keyboard-response","207","153538","0.0-207.0","","<div class=""circle set""></div>","set","500","","",""
"1261"," ","html-keyboard-response","208","154800","0.0-208.0","","","go","","1020","1261","241"
"null","null","html-keyboard-response","209","155301","0.0-209.0","","<div class=""circle go""></div>","feedback_circle","","","",""
"null","null","html-keyboard-response","210","155805","0.0-210.0","","
      <div style=""text-align:center;"">
        
        <p style=""font-size: 16px; text-align: center;"">Trial 31 of 900</p>
        <p><strong>Error:</strong> +241 ms</p>

        <div style=""position: relative; width: 80%; height: 40px; margin: 40px auto;"">
          <div style=""height: 8px; background: linear-gradient(to right, #3498db, #ccc, #e74c3c); border-radius: 4px;""></div>
          <div style=""position: absolute; left: 74.1%; top: -6px; transform: translateX(-50%);"">
            <div style=""width: 14px; height: 14px; background: black; border-radius: 50%; border: 2px solid white;""></div>
          </div>
          <div style=""position: absolute; left: 0%; top: 20px; font-size: 12px;"">–500 ms</div>
          <div style=""position: absolute; left: 50%; top: 20px; font-size: 12px; transform: translateX(-50%);"">0</div>
          <div style=""position: absolute; right: 0%; top: 20px; font-size: 12px;"">+500 ms</div>
        </div>

        <p>Press any key to continue.</p>
      </div>
    ","feedback_text","","","",""
"null","null","html-keyboard-response","211","156807","0.0-211.0","","<p style=""font-size: 48px;"">+</p>","iti","","","",""
"null","null","html-keyboard-response","212","157309","0.0-212.0","","<div class=""circle ready""></div>","ready","","","",""
"null","null","html-keyboard-response","213","158392","0.0-213.0","","","isi","","","",""
"null","null","html-keyboard-response","214","158895","0.0-214.0","","<div class=""circle set""></div>","set","500","","",""
"1020"," ","html-keyboard-response","215","159916","0.0-215.0","","","go","","1080","1020","-60"
"null","null","html-keyboard-response","216","160417","0.0-216.0","","<div class=""circle go""></div>","feedback_circle","","","",""
"null","null","html-keyboard-response","217","160919","0.0-217.0","","
      <div style=""text-align:center;"">
        
        <p style=""font-size: 16px; text-align: center;"">Trial 32 of 900</p>
        <p><strong>Error:</strong> -60 ms</p>

        <div style=""position: relative; width: 80%; height: 40px; margin: 40px auto;"">
          <div style=""height: 8px; background: linear-gradient(to right, #3498db, #ccc, #e74c3c); border-radius: 4px;""></div>
          <div style=""position: absolute; left: 44%; top: -6px; transform: translateX(-50%);"">
            <div style=""width: 14px; height: 14px; background: black; border-radius: 50%; border: 2px solid white;""></div>
          </div>
          <div style=""position: absolute; left: 0%; top: 20px; font-size: 12px;"">–500 ms</div>
          <div style=""position: absolute; left: 50%; top: 20px; font-size: 12px; transform: translateX(-50%);"">0</div>
          <div style=""position: absolute; right: 0%; top: 20px; font-size: 12px;"">+500 ms</div>
        </div>

        <p>Press any key to continue.</p>
      </div>
    ","feedback_text","","","",""
"null","null","html-keyboard-response","218","161921","0.0-218.0","","<p style=""font-size: 48px;"">+</p>","iti","","","",""
"null","null","html-keyboard-response","219","162424","0.0-219.0","","<div class=""circle ready""></div>","ready","","","",""
"null","null","html-keyboard-response","220","163336","0.0-220.0","","","isi","","","",""
"null","null","html-keyboard-response","221","163839","0.0-221.0","","<div class=""circle set""></div>","set","500","","",""
"898"," ","html-keyboard-response","222","164738","0.0-222.0","","","go","","910","898","-12"
"null","null","html-keyboard-response","223","165239","0.0-223.0","","<div class=""circle go""></div>","feedback_circle","","","",""
"null","null","html-keyboard-response","224","165741","0.0-224.0","","
      <div style=""text-align:center;"">
        
        <p style=""font-size: 16px; text-align: center;"">Trial 33 of 900</p>
        <p><strong>Error:</strong> -12 ms</p>

        <div style=""position: relative; width: 80%; height: 40px; margin: 40px auto;"">
          <div style=""height: 8px; background: linear-gradient(to right, #3498db, #ccc, #e74c3c); border-radius: 4px;""></div>
          <div style=""position: absolute; left: 48.8%; top: -6px; transform: translateX(-50%);"">
            <div style=""width: 14px; height: 14px; background: black; border-radius: 50%; border: 2px solid white;""></div>
          </div>
          <div style=""position: absolute; left: 0%; top: 20px; font-size: 12px;"">–500 ms</div>
          <div style=""position: absolute; left: 50%; top: 20px; font-size: 12px; transform: translateX(-50%);"">0</div>
          <div style=""position: absolute; right: 0%; top: 20px; font-size: 12px;"">+500 ms</div>
        </div>

        <p>Press any key to continue.</p>
      </div>
    ","feedback_text","","","",""
"null","null","html-keyboard-response","225","166744","0.0-225.0","","<p style=""font-size: 48px;"">+</p>","iti","","","",""
"null","null","html-keyboard-response","226","167247","0.0-226.0","","<div class=""circle ready""></div>","ready","","","",""
"null","null","html-keyboard-response","227","168270","0.0-227.0","","","isi","","","",""
"null","null","html-keyboard-response","228","168773","0.0-228.0","","<div class=""circle set""></div>","set","500","","",""
"913"," ","html-keyboard-response","229","169687","0.0-229.0","","","go","","1020","913","-107"
"null","null","html-keyboard-response","230","170189","0.0-230.0","","<div class=""circle go""></div>","feedback_circle","","","",""
"null","null","html-keyboard-response","231","170693","0.0-231.0","","
      <div style=""text-align:center;"">
        
        <p style=""font-size: 16px; text-align: center;"">Trial 34 of 900</p>
        <p><strong>Error:</strong> -107 ms</p>

        <div style=""position: relative; width: 80%; height: 40px; margin: 40px auto;"">
          <div style=""height: 8px; background: linear-gradient(to right, #3498db, #ccc, #e74c3c); border-radius: 4px;""></div>
          <div style=""position: absolute; left: 39.300000000000004%; top: -6px; transform: translateX(-50%);"">
            <div style=""width: 14px; height: 14px; background: black; border-radius: 50%; border: 2px solid white;""></div>
          </div>
          <div style=""position: absolute; left: 0%; top: 20px; font-size: 12px;"">–500 ms</div>
          <div style=""position: absolute; left: 50%; top: 20px; font-size: 12px; transform: translateX(-50%);"">0</div>
          <div style=""position: absolute; right: 0%; top: 20px; font-size: 12px;"">+500 ms</div>
        </div>

        <p>Press any key to continue.</p>
      </div>
    ","feedback_text","","","",""
"null","null","html-keyboard-response","232","171695","0.0-232.0","","<p style=""font-size: 48px;"">+</p>","iti","","","",""
"null","null","html-keyboard-response","233","172198","0.0-233.0","","<div class=""circle ready""></div>","ready","","","",""
"null","null","html-keyboard-response","234","173161","0.0-234.0","","","isi","","","",""
"null","null","html-keyboard-response","235","173663","0.0-235.0","","<div class=""circle set""></div>","set","500","","",""
"886"," ","html-keyboard-response","236","174551","0.0-236.0","","","go","","960","886","-74"
"null","null","html-keyboard-response","237","175053","0.0-237.0","","<div class=""circle go""></div>","feedback_circle","","","",""
"null","null","html-keyboard-response","238","175556","0.0-238.0","","
      <div style=""text-align:center;"">
        
        <p style=""font-size: 16px; text-align: center;"">Trial 35 of 900</p>
        <p><strong>Error:</strong> -74 ms</p>

        <div style=""position: relative; width: 80%; height: 40px; margin: 40px auto;"">
          <div style=""height: 8px; background: linear-gradient(to right, #3498db, #ccc, #e74c3c); border-radius: 4px;""></div>
          <div style=""position: absolute; left: 42.6%; top: -6px; transform: translateX(-50%);"">
            <div style=""width: 14px; height: 14px; background: black; border-radius: 50%; border: 2px solid white;""></div>
          </div>
          <div style=""position: absolute; left: 0%; top: 20px; font-size: 12px;"">–500 ms</div>
          <div style=""position: absolute; left: 50%; top: 20px; font-size: 12px; transform: translateX(-50%);"">0</div>
          <div style=""position: absolute; right: 0%; top: 20px; font-size: 12px;"">+500 ms</div>
        </div>

        <p>Press any key to continue.</p>
      </div>
    ","feedback_text","","","",""
"null","null","html-keyboard-response","239","176558","0.0-239.0","","<p style=""font-size: 48px;"">+</p>","iti","","","",""
"null","null","html-keyboard-response","240","177060","0.0-240.0","","<div class=""circle ready""></div>","ready","","","",""
"null","null","html-keyboard-response","241","178263","0.0-241.0","","","isi","","","",""
"null","null","html-keyboard-response","242","178765","0.0-242.0","","<div class=""circle set""></div>","set","500","","",""
"1116"," ","html-keyboard-response","243","179883","0.0-243.0","","","go","","1200","1116","-84"
"null","null","html-keyboard-response","244","180385","0.0-244.0","","<div class=""circle go""></div>","feedback_circle","","","",""
"null","null","html-keyboard-response","245","180887","0.0-245.0","","
      <div style=""text-align:center;"">
        
        <p style=""font-size: 16px; text-align: center;"">Trial 36 of 900</p>
        <p><strong>Error:</strong> -84 ms</p>

        <div style=""position: relative; width: 80%; height: 40px; margin: 40px auto;"">
          <div style=""height: 8px; background: linear-gradient(to right, #3498db, #ccc, #e74c3c); border-radius: 4px;""></div>
          <div style=""position: absolute; left: 41.6%; top: -6px; transform: translateX(-50%);"">
            <div style=""width: 14px; height: 14px; background: black; border-radius: 50%; border: 2px solid white;""></div>
          </div>
          <div style=""position: absolute; left: 0%; top: 20px; font-size: 12px;"">–500 ms</div>
          <div style=""position: absolute; left: 50%; top: 20px; font-size: 12px; transform: translateX(-50%);"">0</div>
          <div style=""position: absolute; right: 0%; top: 20px; font-size: 12px;"">+500 ms</div>
        </div>

        <p>Press any key to continue.</p>
      </div>
    ","feedback_text","","","",""
"null","null","html-keyboard-response","246","181889","0.0-246.0","","<p style=""font-size: 48px;"">+</p>","iti","","","",""
"null","null","html-keyboard-response","247","182392","0.0-247.0","","<div class=""circle ready""></div>","ready","","","",""
"null","null","html-keyboard-response","248","183415","0.0-248.0","","","isi","","","",""
"null","null","html-keyboard-response","249","183918","0.0-249.0","","<div class=""circle set""></div>","set","500","","",""
"1069"," ","html-keyboard-response","250","184988","0.0-250.0","","","go","","1020","1069","49"
"null","null","html-keyboard-response","251","185490","0.0-251.0","","<div class=""circle go""></div>","feedback_circle","","","",""
"null","null","html-keyboard-response","252","185992","0.0-252.0","","
      <div style=""text-align:center;"">
        
        <p style=""font-size: 16px; text-align: center;"">Trial 37 of 900</p>
        <p><strong>Error:</strong> +49 ms</p>

        <div style=""position: relative; width: 80%; height: 40px; margin: 40px auto;"">
          <div style=""height: 8px; background: linear-gradient(to right, #3498db, #ccc, #e74c3c); border-radius: 4px;""></div>
          <div style=""position: absolute; left: 54.900000000000006%; top: -6px; transform: translateX(-50%);"">
            <div style=""width: 14px; height: 14px; background: black; border-radius: 50%; border: 2px solid white;""></div>
          </div>
          <div style=""position: absolute; left: 0%; top: 20px; font-size: 12px;"">–500 ms</div>
          <div style=""position: absolute; left: 50%; top: 20px; font-size: 12px; transform: translateX(-50%);"">0</div>
          <div style=""position: absolute; right: 0%; top: 20px; font-size: 12px;"">+500 ms</div>
        </div>

        <p>Press any key to continue.</p>
      </div>
    ","feedback_text","","","",""
"null","null","html-keyboard-response","253","186993","0.0-253.0","","<p style=""font-size: 48px;"">+</p>","iti","","","",""
"null","null","html-keyboard-response","254","187496","0.0-254.0","","<div class=""circle ready""></div>","ready","","","",""
"null","null","html-keyboard-response","255","188699","0.0-255.0","","","isi","","","",""
"null","null","html-keyboard-response","256","189201","0.0-256.0","","<div class=""circle set""></div>","set","500","","",""
"1174"," ","html-keyboard-response","257","190377","0.0-257.0","","","go","","1200","1174","-26"
"null","null","html-keyboard-response","258","190879","0.0-258.0","","<div class=""circle go""></div>","feedback_circle","","","",""
"null","null","html-keyboard-response","259","191382","0.0-259.0","","
      <div style=""text-align:center;"">
        
        <p style=""font-size: 16px; text-align: center;"">Trial 38 of 900</p>
        <p><strong>Error:</strong> -26 ms</p>

        <div style=""position: relative; width: 80%; height: 40px; margin: 40px auto;"">
          <div style=""height: 8px; background: linear-gradient(to right, #3498db, #ccc, #e74c3c); border-radius: 4px;""></div>
          <div style=""position: absolute; left: 47.4%; top: -6px; transform: translateX(-50%);"">
            <div style=""width: 14px; height: 14px; background: black; border-radius: 50%; border: 2px solid white;""></div>
          </div>
          <div style=""position: absolute; left: 0%; top: 20px; font-size: 12px;"">–500 ms</div>
          <div style=""position: absolute; left: 50%; top: 20px; font-size: 12px; transform: translateX(-50%);"">0</div>
          <div style=""position: absolute; right: 0%; top: 20px; font-size: 12px;"">+500 ms</div>
        </div>

        <p>Press any key to continue.</p>
      </div>
    ","feedback_text","","","",""
"null","null","html-keyboard-response","260","192384","0.0-260.0","","<p style=""font-size: 48px;"">+</p>","iti","","","",""
"null","null","html-keyboard-response","261","192887","0.0-261.0","","<div class=""circle ready""></div>","ready","","","",""
"null","null","html-keyboard-response","262","193909","0.0-262.0","","","isi","","","",""
"null","null","html-keyboard-response","263","194412","0.0-263.0","","<div class=""circle set""></div>","set","500","","",""
"1011"," ","html-keyboard-response","264","195424","0.0-264.0","","","go","","1020","1011","-9"
"null","null","html-keyboard-response","265","195926","0.0-265.0","","<div class=""circle go""></div>","feedback_circle","","","",""
"null","null","html-keyboard-response","266","196429","0.0-266.0","","
      <div style=""text-align:center;"">
        
        <p style=""font-size: 16px; text-align: center;"">Trial 39 of 900</p>
        <p><strong>Error:</strong> -9 ms</p>

        <div style=""position: relative; width: 80%; height: 40px; margin: 40px auto;"">
          <div style=""height: 8px; background: linear-gradient(to right, #3498db, #ccc, #e74c3c); border-radius: 4px;""></div>
          <div style=""position: absolute; left: 49.1%; top: -6px; transform: translateX(-50%);"">
            <div style=""width: 14px; height: 14px; background: black; border-radius: 50%; border: 2px solid white;""></div>
          </div>
          <div style=""position: absolute; left: 0%; top: 20px; font-size: 12px;"">–500 ms</div>
          <div style=""position: absolute; left: 50%; top: 20px; font-size: 12px; transform: translateX(-50%);"">0</div>
          <div style=""position: absolute; right: 0%; top: 20px; font-size: 12px;"">+500 ms</div>
        </div>

        <p>Press any key to continue.</p>
      </div>
    ","feedback_text","","","",""
"null","null","html-keyboard-response","267","197430","0.0-267.0","","<p style=""font-size: 48px;"">+</p>","iti","","","",""
"null","null","html-keyboard-response","268","197933","0.0-268.0","","<div class=""circle ready""></div>","ready","","","",""
"null","null","html-keyboard-response","269","198956","0.0-269.0","","","isi","","","",""
"null","null","html-keyboard-response","270","199458","0.0-270.0","","<div class=""circle set""></div>","set","500","","",""
"1153"," ","html-keyboard-response","271","200611","0.0-271.0","","","go","","1020","1153","133"
"null","null","html-keyboard-response","272","201112","0.0-272.0","","<div class=""circle go""></div>","feedback_circle","","","",""
"null","null","html-keyboard-response","273","201614","0.0-273.0","","
      <div style=""text-align:center;"">
        
        <p style=""font-size: 16px; text-align: center;"">Trial 40 of 900</p>
        <p><strong>Error:</strong> +133 ms</p>

        <div style=""position: relative; width: 80%; height: 40px; margin: 40px auto;"">
          <div style=""height: 8px; background: linear-gradient(to right, #3498db, #ccc, #e74c3c); border-radius: 4px;""></div>
          <div style=""position: absolute; left: 63.3%; top: -6px; transform: translateX(-50%);"">
            <div style=""width: 14px; height: 14px; background: black; border-radius: 50%; border: 2px solid white;""></div>
          </div>
          <div style=""position: absolute; left: 0%; top: 20px; font-size: 12px;"">–500 ms</div>
          <div style=""position: absolute; left: 50%; top: 20px; font-size: 12px; transform: translateX(-50%);"">0</div>
          <div style=""position: absolute; right: 0%; top: 20px; font-size: 12px;"">+500 ms</div>
        </div>

        <p>Press any key to continue.</p>
      </div>
    ","feedback_text","","","",""
"null","null","html-keyboard-response","274","202617","0.0-274.0","","<p style=""font-size: 48px;"">+</p>","iti","","","",""
"null","null","html-keyboard-response","275","203119","0.0-275.0","","<div class=""circle ready""></div>","ready","","","",""
"null","null","html-keyboard-response","276","204322","0.0-276.0","","","isi","","","",""
"null","null","html-keyboard-response","277","204825","0.0-277.0","","<div class=""circle set""></div>","set","500","","",""
"1254"," ","html-keyboard-response","278","206080","0.0-278.0","","","go","","1200","1254","54"
"null","null","html-keyboard-response","279","206582","0.0-279.0","","<div class=""circle go""></div>","feedback_circle","","","",""
"null","null","html-keyboard-response","280","207085","0.0-280.0","","
      <div style=""text-align:center;"">
        
        <p style=""font-size: 16px; text-align: center;"">Trial 41 of 900</p>
        <p><strong>Error:</strong> +54 ms</p>

        <div style=""position: relative; width: 80%; height: 40px; margin: 40px auto;"">
          <div style=""height: 8px; background: linear-gradient(to right, #3498db, #ccc, #e74c3c); border-radius: 4px;""></div>
          <div style=""position: absolute; left: 55.400000000000006%; top: -6px; transform: translateX(-50%);"">
            <div style=""width: 14px; height: 14px; background: black; border-radius: 50%; border: 2px solid white;""></div>
          </div>
          <div style=""position: absolute; left: 0%; top: 20px; font-size: 12px;"">–500 ms</div>
          <div style=""position: absolute; left: 50%; top: 20px; font-size: 12px; transform: translateX(-50%);"">0</div>
          <div style=""position: absolute; right: 0%; top: 20px; font-size: 12px;"">+500 ms</div>
        </div>

        <p>Press any key to continue.</p>
      </div>
    ","feedback_text","","","",""
"null","null","html-keyboard-response","281","208087","0.0-281.0","","<p style=""font-size: 48px;"">+</p>","iti","","","",""
"null","null","html-keyboard-response","282","208590","0.0-282.0","","<div class=""circle ready""></div>","ready","","","",""
"null","null","html-keyboard-response","283","209502","0.0-283.0","","","isi","","","",""
"null","null","html-keyboard-response","284","210005","0.0-284.0","","<div class=""circle set""></div>","set","500","","",""
"1070"," ","html-keyboard-response","285","211076","0.0-285.0","","","go","","910","1070","160"
"null","null","html-keyboard-response","286","211578","0.0-286.0","","<div class=""circle go""></div>","feedback_circle","","","",""
"null","null","html-keyboard-response","287","212082","0.0-287.0","","
      <div style=""text-align:center;"">
        
        <p style=""font-size: 16px; text-align: center;"">Trial 42 of 900</p>
        <p><strong>Error:</strong> +160 ms</p>

        <div style=""position: relative; width: 80%; height: 40px; margin: 40px auto;"">
          <div style=""height: 8px; background: linear-gradient(to right, #3498db, #ccc, #e74c3c); border-radius: 4px;""></div>
          <div style=""position: absolute; left: 66%; top: -6px; transform: translateX(-50%);"">
            <div style=""width: 14px; height: 14px; background: black; border-radius: 50%; border: 2px solid white;""></div>
          </div>
          <div style=""position: absolute; left: 0%; top: 20px; font-size: 12px;"">–500 ms</div>
          <div style=""position: absolute; left: 50%; top: 20px; font-size: 12px; transform: translateX(-50%);"">0</div>
          <div style=""position: absolute; right: 0%; top: 20px; font-size: 12px;"">+500 ms</div>
        </div>

        <p>Press any key to continue.</p>
      </div>
    ","feedback_text","","","",""
"null","null","html-keyboard-response","288","213085","0.0-288.0","","<p style=""font-size: 48px;"">+</p>","iti","","","",""
"null","null","html-keyboard-response","289","213588","0.0-289.0","","<div class=""circle ready""></div>","ready","","","",""
"null","null","html-keyboard-response","290","214500","0.0-290.0","","","isi","","","",""
"null","null","html-keyboard-response","291","215003","0.0-291.0","","<div class=""circle set""></div>","set","500","","",""
"1257"," ","html-keyboard-response","292","216260","0.0-292.0","","","go","","910","1257","347"
"null","null","html-keyboard-response","293","216762","0.0-293.0","","<div class=""circle go""></div>","feedback_circle","","","",""
"null","null","html-keyboard-response","294","217265","0.0-294.0","","
      <div style=""text-align:center;"">
        
        <p style=""font-size: 16px; text-align: center;"">Trial 43 of 900</p>
        <p><strong>Error:</strong> +347 ms</p>

        <div style=""position: relative; width: 80%; height: 40px; margin: 40px auto;"">
          <div style=""height: 8px; background: linear-gradient(to right, #3498db, #ccc, #e74c3c); border-radius: 4px;""></div>
          <div style=""position: absolute; left: 84.7%; top: -6px; transform: translateX(-50%);"">
            <div style=""width: 14px; height: 14px; background: black; border-radius: 50%; border: 2px solid white;""></div>
          </div>
          <div style=""position: absolute; left: 0%; top: 20px; font-size: 12px;"">–500 ms</div>
          <div style=""position: absolute; left: 50%; top: 20px; font-size: 12px; transform: translateX(-50%);"">0</div>
          <div style=""position: absolute; right: 0%; top: 20px; font-size: 12px;"">+500 ms</div>
        </div>

        <p>Press any key to continue.</p>
      </div>
    ","feedback_text","","","",""
"null","null","html-keyboard-response","295","218266","0.0-295.0","","<p style=""font-size: 48px;"">+</p>","iti","","","",""
"null","null","html-keyboard-response","296","218769","0.0-296.0","","<div class=""circle ready""></div>","ready","","","",""
"null","null","html-keyboard-response","297","219912","0.0-297.0","","","isi","","","",""
"null","null","html-keyboard-response","298","220414","0.0-298.0","","<div class=""circle set""></div>","set","500","","",""
"1104"," ","html-keyboard-response","299","221520","0.0-299.0","","","go","","1140","1104","-36"
"null","null","html-keyboard-response","300","222022","0.0-300.0","","<div class=""circle go""></div>","feedback_circle","","","",""
"null","null","html-keyboard-response","301","222525","0.0-301.0","","
      <div style=""text-align:center;"">
        
        <p style=""font-size: 16px; text-align: center;"">Trial 44 of 900</p>
        <p><strong>Error:</strong> -36 ms</p>

        <div style=""position: relative; width: 80%; height: 40px; margin: 40px auto;"">
          <div style=""height: 8px; background: linear-gradient(to right, #3498db, #ccc, #e74c3c); border-radius: 4px;""></div>
          <div style=""position: absolute; left: 46.400000000000006%; top: -6px; transform: translateX(-50%);"">
            <div style=""width: 14px; height: 14px; background: black; border-radius: 50%; border: 2px solid white;""></div>
          </div>
          <div style=""position: absolute; left: 0%; top: 20px; font-size: 12px;"">–500 ms</div>
          <div style=""position: absolute; left: 50%; top: 20px; font-size: 12px; transform: translateX(-50%);"">0</div>
          <div style=""position: absolute; right: 0%; top: 20px; font-size: 12px;"">+500 ms</div>
        </div>

        <p>Press any key to continue.</p>
      </div>
    ","feedback_text","","","",""
"null","null","html-keyboard-response","302","223528","0.0-302.0","","<p style=""font-size: 48px;"">+</p>","iti","","","",""
"null","null","html-keyboard-response","303","224030","0.0-303.0","","<div class=""circle ready""></div>","ready","","","",""
"null","null","html-keyboard-response","304","225233","0.0-304.0","","","isi","","","",""
"null","null","html-keyboard-response","305","225736","0.0-305.0","","<div class=""circle set""></div>","set","500","","",""
"1074"," ","html-keyboard-response","306","226811","0.0-306.0","","","go","","1200","1074","-126"
"null","null","html-keyboard-response","307","227313","0.0-307.0","","<div class=""circle go""></div>","feedback_circle","","","",""
"null","null","html-keyboard-response","308","227816","0.0-308.0","","
      <div style=""text-align:center;"">
        
        <p style=""font-size: 16px; text-align: center;"">Trial 45 of 900</p>
        <p><strong>Error:</strong> -126 ms</p>

        <div style=""position: relative; width: 80%; height: 40px; margin: 40px auto;"">
          <div style=""height: 8px; background: linear-gradient(to right, #3498db, #ccc, #e74c3c); border-radius: 4px;""></div>
          <div style=""position: absolute; left: 37.4%; top: -6px; transform: translateX(-50%);"">
            <div style=""width: 14px; height: 14px; background: black; border-radius: 50%; border: 2px solid white;""></div>
          </div>
          <div style=""position: absolute; left: 0%; top: 20px; font-size: 12px;"">–500 ms</div>
          <div style=""position: absolute; left: 50%; top: 20px; font-size: 12px; transform: translateX(-50%);"">0</div>
          <div style=""position: absolute; right: 0%; top: 20px; font-size: 12px;"">+500 ms</div>
        </div>

        <p>Press any key to continue.</p>
      </div>
    ","feedback_text","","","",""
"null","null","html-keyboard-response","309","228819","0.0-309.0","","<p style=""font-size: 48px;"">+</p>","iti","","","",""
"null","null","html-keyboard-response","310","229321","0.0-310.0","","<div class=""circle ready""></div>","ready","","","",""
"null","null","html-keyboard-response","311","230284","0.0-311.0","","","isi","","","",""
"null","null","html-keyboard-response","312","230787","0.0-312.0","","<div class=""circle set""></div>","set","500","","",""
"1159"," ","html-keyboard-response","313","231947","0.0-313.0","","","go","","960","1159","199"
"null","null","html-keyboard-response","314","232449","0.0-314.0","","<div class=""circle go""></div>","feedback_circle","","","",""
"null","null","html-keyboard-response","315","232952","0.0-315.0","","
      <div style=""text-align:center;"">
        
        <p style=""font-size: 16px; text-align: center;"">Trial 46 of 900</p>
        <p><strong>Error:</strong> +199 ms</p>

        <div style=""position: relative; width: 80%; height: 40px; margin: 40px auto;"">
          <div style=""height: 8px; background: linear-gradient(to right, #3498db, #ccc, #e74c3c); border-radius: 4px;""></div>
          <div style=""position: absolute; left: 69.89999999999999%; top: -6px; transform: translateX(-50%);"">
            <div style=""width: 14px; height: 14px; background: black; border-radius: 50%; border: 2px solid white;""></div>
          </div>
          <div style=""position: absolute; left: 0%; top: 20px; font-size: 12px;"">–500 ms</div>
          <div style=""position: absolute; left: 50%; top: 20px; font-size: 12px; transform: translateX(-50%);"">0</div>
          <div style=""position: absolute; right: 0%; top: 20px; font-size: 12px;"">+500 ms</div>
        </div>

        <p>Press any key to continue.</p>
      </div>
    ","feedback_text","","","",""
"null","null","html-keyboard-response","316","233955","0.0-316.0","","<p style=""font-size: 48px;"">+</p>","iti","","","",""
"null","null","html-keyboard-response","317","234457","0.0-317.0","","<div class=""circle ready""></div>","ready","","","",""
"null","null","html-keyboard-response","318","235310","0.0-318.0","","","isi","","","",""
"null","null","html-keyboard-response","319","235812","0.0-319.0","","<div class=""circle set""></div>","set","500","","",""
"1174"," ","html-keyboard-response","320","236988","0.0-320.0","","","go","","850","1174","324"
"null","null","html-keyboard-response","321","237489","0.0-321.0","","<div class=""circle go""></div>","feedback_circle","","","",""
"null","null","html-keyboard-response","322","237991","0.0-322.0","","
      <div style=""text-align:center;"">
        
        <p style=""font-size: 16px; text-align: center;"">Trial 47 of 900</p>
        <p><strong>Error:</strong> +324 ms</p>

        <div style=""position: relative; width: 80%; height: 40px; margin: 40px auto;"">
          <div style=""height: 8px; background: linear-gradient(to right, #3498db, #ccc, #e74c3c); border-radius: 4px;""></div>
          <div style=""position: absolute; left: 82.39999999999999%; top: -6px; transform: translateX(-50%);"">
            <div style=""width: 14px; height: 14px; background: black; border-radius: 50%; border: 2px solid white;""></div>
          </div>
          <div style=""position: absolute; left: 0%; top: 20px; font-size: 12px;"">–500 ms</div>
          <div style=""position: absolute; left: 50%; top: 20px; font-size: 12px; transform: translateX(-50%);"">0</div>
          <div style=""position: absolute; right: 0%; top: 20px; font-size: 12px;"">+500 ms</div>
        </div>

        <p>Press any key to continue.</p>
      </div>
    ","feedback_text","","","",""
"null","null","html-keyboard-response","323","238994","0.0-323.0","","<p style=""font-size: 48px;"">+</p>","iti","","","",""
"null","null","html-keyboard-response","324","239497","0.0-324.0","","<div class=""circle ready""></div>","ready","","","",""
"null","null","html-keyboard-response","325","240640","0.0-325.0","","","isi","","","",""
"null","null","html-keyboard-response","326","241142","0.0-326.0","","<div class=""circle set""></div>","set","500","","",""
"1074"," ","html-keyboard-response","327","242217","0.0-327.0","","","go","","1140","1074","-66"
"null","null","html-keyboard-response","328","242719","0.0-328.0","","<div class=""circle go""></div>","feedback_circle","","","",""
"null","null","html-keyboard-response","329","243223","0.0-329.0","","
      <div style=""text-align:center;"">
        
        <p style=""font-size: 16px; text-align: center;"">Trial 48 of 900</p>
        <p><strong>Error:</strong> -66 ms</p>

        <div style=""position: relative; width: 80%; height: 40px; margin: 40px auto;"">
          <div style=""height: 8px; background: linear-gradient(to right, #3498db, #ccc, #e74c3c); border-radius: 4px;""></div>
          <div style=""position: absolute; left: 43.4%; top: -6px; transform: translateX(-50%);"">
            <div style=""width: 14px; height: 14px; background: black; border-radius: 50%; border: 2px solid white;""></div>
          </div>
          <div style=""position: absolute; left: 0%; top: 20px; font-size: 12px;"">–500 ms</div>
          <div style=""position: absolute; left: 50%; top: 20px; font-size: 12px; transform: translateX(-50%);"">0</div>
          <div style=""position: absolute; right: 0%; top: 20px; font-size: 12px;"">+500 ms</div>
        </div>

        <p>Press any key to continue.</p>
      </div>
    ","feedback_text","","","",""
"null","null","html-keyboard-response","330","244225","0.0-330.0","","<p style=""font-size: 48px;"">+</p>","iti","","","",""
"null","null","html-keyboard-response","331","244727","0.0-331.0","","<div class=""circle ready""></div>","ready","","","",""
"null","null","html-keyboard-response","332","245930","0.0-332.0","","","isi","","","",""
"null","null","html-keyboard-response","333","246433","0.0-333.0","","<div class=""circle set""></div>","set","500","","",""
"1036"," ","html-keyboard-response","334","247470","0.0-334.0","","","go","","1200","1036","-164"
"null","null","html-keyboard-response","335","247972","0.0-335.0","","<div class=""circle go""></div>","feedback_circle","","","",""
"null","null","html-keyboard-response","336","248475","0.0-336.0","","
      <div style=""text-align:center;"">
        
        <p style=""font-size: 16px; text-align: center;"">Trial 49 of 900</p>
        <p><strong>Error:</strong> -164 ms</p>

        <div style=""position: relative; width: 80%; height: 40px; margin: 40px auto;"">
          <div style=""height: 8px; background: linear-gradient(to right, #3498db, #ccc, #e74c3c); border-radius: 4px;""></div>
          <div style=""position: absolute; left: 33.6%; top: -6px; transform: translateX(-50%);"">
            <div style=""width: 14px; height: 14px; background: black; border-radius: 50%; border: 2px solid white;""></div>
          </div>
          <div style=""position: absolute; left: 0%; top: 20px; font-size: 12px;"">–500 ms</div>
          <div style=""position: absolute; left: 50%; top: 20px; font-size: 12px; transform: translateX(-50%);"">0</div>
          <div style=""position: absolute; right: 0%; top: 20px; font-size: 12px;"">+500 ms</div>
        </div>

        <p>Press any key to continue.</p>
      </div>
    ","feedback_text","","","",""
"null","null","html-keyboard-response","337","249478","0.0-337.0","","<p style=""font-size: 48px;"">+</p>","iti","","","",""
"null","null","html-keyboard-response","338","249981","0.0-338.0","","<div class=""circle ready""></div>","ready","","","",""
"null","null","html-keyboard-response","339","250942","0.0-339.0","","","isi","","","",""
"null","null","html-keyboard-response","340","251445","0.0-340.0","","<div class=""circle set""></div>","set","500","","",""
"1150"," ","html-keyboard-response","341","252596","0.0-341.0","","","go","","960","1150","190"
"null","null","html-keyboard-response","342","253098","0.0-342.0","","<div class=""circle go""></div>","feedback_circle","","","",""
"null","null","html-keyboard-response","343","253601","0.0-343.0","","
      <div style=""text-align:center;"">
        
        <p style=""font-size: 16px; text-align: center;"">Trial 50 of 900</p>
        <p><strong>Error:</strong> +190 ms</p>

        <div style=""position: relative; width: 80%; height: 40px; margin: 40px auto;"">
          <div style=""height: 8px; background: linear-gradient(to right, #3498db, #ccc, #e74c3c); border-radius: 4px;""></div>
          <div style=""position: absolute; left: 69%; top: -6px; transform: translateX(-50%);"">
            <div style=""width: 14px; height: 14px; background: black; border-radius: 50%; border: 2px solid white;""></div>
          </div>
          <div style=""position: absolute; left: 0%; top: 20px; font-size: 12px;"">–500 ms</div>
          <div style=""position: absolute; left: 50%; top: 20px; font-size: 12px; transform: translateX(-50%);"">0</div>
          <div style=""position: absolute; right: 0%; top: 20px; font-size: 12px;"">+500 ms</div>
        </div>

        <p>Press any key to continue.</p>
      </div>
    ","feedback_text","","","",""
"null","null","html-keyboard-response","344","254604","0.0-344.0","","<p style=""font-size: 48px;"">+</p>","iti","","","",""
"null","null","html-keyboard-response","345","255107","0.0-345.0","","<div class=""circle ready""></div>","ready","","","",""
"null","null","html-keyboard-response","346","256190","0.0-346.0","","","isi","","","",""
"null","null","html-keyboard-response","347","256693","0.0-347.0","","<div class=""circle set""></div>","set","500","","",""
"1088"," ","html-keyboard-response","348","257782","0.0-348.0","","","go","","1080","1088","8"
"null","null","html-keyboard-response","349","258284","0.0-349.0","","<div class=""circle go""></div>","feedback_circle","","","",""
"null","null","html-keyboard-response","350","258787","0.0-350.0","","
      <div style=""text-align:center;"">
        
        <p style=""font-size: 16px; text-align: center;"">Trial 51 of 900</p>
        <p><strong>Error:</strong> +8 ms</p>

        <div style=""position: relative; width: 80%; height: 40px; margin: 40px auto;"">
          <div style=""height: 8px; background: linear-gradient(to right, #3498db, #ccc, #e74c3c); border-radius: 4px;""></div>
          <div style=""position: absolute; left: 50.8%; top: -6px; transform: translateX(-50%);"">
            <div style=""width: 14px; height: 14px; background: black; border-radius: 50%; border: 2px solid white;""></div>
          </div>
          <div style=""position: absolute; left: 0%; top: 20px; font-size: 12px;"">–500 ms</div>
          <div style=""position: absolute; left: 50%; top: 20px; font-size: 12px; transform: translateX(-50%);"">0</div>
          <div style=""position: absolute; right: 0%; top: 20px; font-size: 12px;"">+500 ms</div>
        </div>

        <p>Press any key to continue.</p>
      </div>
    ","feedback_text","","","",""
"null","null","html-keyboard-response","351","259790","0.0-351.0","","<p style=""font-size: 48px;"">+</p>","iti","","","",""
"null","null","html-keyboard-response","352","260293","0.0-352.0","","<div class=""circle ready""></div>","ready","","","",""
"null","null","html-keyboard-response","353","261376","0.0-353.0","","","isi","","","",""
"null","null","html-keyboard-response","354","261879","0.0-354.0","","<div class=""circle set""></div>","set","500","","",""
"928"," ","html-keyboard-response","355","262808","0.0-355.0","","","go","","1080","928","-152"
"null","null","html-keyboard-response","356","263309","0.0-356.0","","<div class=""circle go""></div>","feedback_circle","","","",""
"null","null","html-keyboard-response","357","263811","0.0-357.0","","
      <div style=""text-align:center;"">
        
        <p style=""font-size: 16px; text-align: center;"">Trial 52 of 900</p>
        <p><strong>Error:</strong> -152 ms</p>

        <div style=""position: relative; width: 80%; height: 40px; margin: 40px auto;"">
          <div style=""height: 8px; background: linear-gradient(to right, #3498db, #ccc, #e74c3c); border-radius: 4px;""></div>
          <div style=""position: absolute; left: 34.8%; top: -6px; transform: translateX(-50%);"">
            <div style=""width: 14px; height: 14px; background: black; border-radius: 50%; border: 2px solid white;""></div>
          </div>
          <div style=""position: absolute; left: 0%; top: 20px; font-size: 12px;"">–500 ms</div>
          <div style=""position: absolute; left: 50%; top: 20px; font-size: 12px; transform: translateX(-50%);"">0</div>
          <div style=""position: absolute; right: 0%; top: 20px; font-size: 12px;"">+500 ms</div>
        </div>

        <p>Press any key to continue.</p>
      </div>
    ","feedback_text","","","",""
"null","null","html-keyboard-response","358","264814","0.0-358.0","","<p style=""font-size: 48px;"">+</p>","iti","","","",""
"null","null","html-keyboard-response","359","265316","0.0-359.0","","<div class=""circle ready""></div>","ready","","","",""
"null","null","html-keyboard-response","360","266398","0.0-360.0","","","isi","","","",""
"null","null","html-keyboard-response","361","266900","0.0-361.0","","<div class=""circle set""></div>","set","500","","",""
"1072"," ","html-keyboard-response","362","267973","0.0-362.0","","","go","","1080","1072","-8"
"null","null","html-keyboard-response","363","268474","0.0-363.0","","<div class=""circle go""></div>","feedback_circle","","","",""
"null","null","html-keyboard-response","364","268977","0.0-364.0","","
      <div style=""text-align:center;"">
        
        <p style=""font-size: 16px; text-align: center;"">Trial 53 of 900</p>
        <p><strong>Error:</strong> -8 ms</p>

        <div style=""position: relative; width: 80%; height: 40px; margin: 40px auto;"">
          <div style=""height: 8px; background: linear-gradient(to right, #3498db, #ccc, #e74c3c); border-radius: 4px;""></div>
          <div style=""position: absolute; left: 49.2%; top: -6px; transform: translateX(-50%);"">
            <div style=""width: 14px; height: 14px; background: black; border-radius: 50%; border: 2px solid white;""></div>
          </div>
          <div style=""position: absolute; left: 0%; top: 20px; font-size: 12px;"">–500 ms</div>
          <div style=""position: absolute; left: 50%; top: 20px; font-size: 12px; transform: translateX(-50%);"">0</div>
          <div style=""position: absolute; right: 0%; top: 20px; font-size: 12px;"">+500 ms</div>
        </div>

        <p>Press any key to continue.</p>
      </div>
    ","feedback_text","","","",""
"null","null","html-keyboard-response","365","269980","0.0-365.0","","<p style=""font-size: 48px;"">+</p>","iti","","","",""
"null","null","html-keyboard-response","366","270483","0.0-366.0","","<div class=""circle ready""></div>","ready","","","",""
"null","null","html-keyboard-response","367","271396","0.0-367.0","","","isi","","","",""
"null","null","html-keyboard-response","368","271898","0.0-368.0","","<div class=""circle set""></div>","set","500","","",""
"1146"," ","html-keyboard-response","369","273046","0.0-369.0","","","go","","910","1146","236"
"null","null","html-keyboard-response","370","273547","0.0-370.0","","<div class=""circle go""></div>","feedback_circle","","","",""
"null","null","html-keyboard-response","371","274050","0.0-371.0","","
      <div style=""text-align:center;"">
        
        <p style=""font-size: 16px; text-align: center;"">Trial 54 of 900</p>
        <p><strong>Error:</strong> +236 ms</p>

        <div style=""position: relative; width: 80%; height: 40px; margin: 40px auto;"">
          <div style=""height: 8px; background: linear-gradient(to right, #3498db, #ccc, #e74c3c); border-radius: 4px;""></div>
          <div style=""position: absolute; left: 73.6%; top: -6px; transform: translateX(-50%);"">
            <div style=""width: 14px; height: 14px; background: black; border-radius: 50%; border: 2px solid white;""></div>
          </div>
          <div style=""position: absolute; left: 0%; top: 20px; font-size: 12px;"">–500 ms</div>
          <div style=""position: absolute; left: 50%; top: 20px; font-size: 12px; transform: translateX(-50%);"">0</div>
          <div style=""position: absolute; right: 0%; top: 20px; font-size: 12px;"">+500 ms</div>
        </div>

        <p>Press any key to continue.</p>
      </div>
    ","feedback_text","","","",""
"null","null","html-keyboard-response","372","275051","0.0-372.0","","<p style=""font-size: 48px;"">+</p>","iti","","","",""
"null","null","html-keyboard-response","373","275554","0.0-373.0","","<div class=""circle ready""></div>","ready","","","",""
"null","null","html-keyboard-response","374","276577","0.0-374.0","","","isi","","","",""
"null","null","html-keyboard-response","375","277079","0.0-375.0","","<div class=""circle set""></div>","set","500","","",""
"1010"," ","html-keyboard-response","376","278091","0.0-376.0","","","go","","1020","1010","-10"
"null","null","html-keyboard-response","377","278592","0.0-377.0","","<div class=""circle go""></div>","feedback_circle","","","",""
"null","null","html-keyboard-response","378","279095","0.0-378.0","","
      <div style=""text-align:center;"">
        
        <p style=""font-size: 16px; text-align: center;"">Trial 55 of 900</p>
        <p><strong>Error:</strong> -10 ms</p>

        <div style=""position: relative; width: 80%; height: 40px; margin: 40px auto;"">
          <div style=""height: 8px; background: linear-gradient(to right, #3498db, #ccc, #e74c3c); border-radius: 4px;""></div>
          <div style=""position: absolute; left: 49%; top: -6px; transform: translateX(-50%);"">
            <div style=""width: 14px; height: 14px; background: black; border-radius: 50%; border: 2px solid white;""></div>
          </div>
          <div style=""position: absolute; left: 0%; top: 20px; font-size: 12px;"">–500 ms</div>
          <div style=""position: absolute; left: 50%; top: 20px; font-size: 12px; transform: translateX(-50%);"">0</div>
          <div style=""position: absolute; right: 0%; top: 20px; font-size: 12px;"">+500 ms</div>
        </div>

        <p>Press any key to continue.</p>
      </div>
    ","feedback_text","","","",""
"null","null","html-keyboard-response","379","280097","0.0-379.0","","<p style=""font-size: 48px;"">+</p>","iti","","","",""
"null","null","html-keyboard-response","380","280599","0.0-380.0","","<div class=""circle ready""></div>","ready","","","",""
"null","null","html-keyboard-response","381","281681","0.0-381.0","","","isi","","","",""
"null","null","html-keyboard-response","382","282183","0.0-382.0","","<div class=""circle set""></div>","set","500","","",""
"1017"," ","html-keyboard-response","383","283201","0.0-383.0","","","go","","1080","1017","-63"
"null","null","html-keyboard-response","384","283703","0.0-384.0","","<div class=""circle go""></div>","feedback_circle","","","",""
"null","null","html-keyboard-response","385","284205","0.0-385.0","","
